key_resp.keys,key_resp.rt,mouse.x,mouse.y,mouse.leftButton,mouse.midButton,mouse.rightButton,mouse.time,mouse.clicked_name,mouse.clicked_pos,training.thisRepN,training.thisTrialN,training.thisN,training.thisIndex,training.ran,trial,answer,height,width,x1,y1,stim_color1,probe_color1,copy_color1,x2,y2,stim_color2,probe_color2,copy_color2,x3,y3,stim_color3,probe_color3,copy_color3,x4,y4,stim_color4,probe_color4,copy_color4,x5,y5,stim_color5,probe_color5,copy_color5,participant,session,date,expName,psychopyVersion,OS,frameRate,key_resp_2.keys,key_resp_2.rt,trials.thisRepN,trials.thisTrialN,trials.thisN,trials.thisIndex,trials.ran,completion_keys.keys,completion_keys.rt
c,36.223005,-0.075942164,-0.217348933,1,0,0,24.85956,probe3,"[-0.1,-0.2]",0,0,0,0,1,1,probe4,0.05,0.05,0.1,0.2,#0072b2,#0072b2,#0072b2,0.1,-0.1,#e69f00,#e69f00,#e69f00,-0.1,-0.2,#cc79a7,#cc79a7,#cc79a7,0.2,-0.1,#4A4A4A,#f0e442,#FFFFFF,0.2,0,#009e73,#009e73,#009e73,A18JQFU6QCTI6G,001,2020-12-11_20h42.36.601,change-localization,2020.1.2,Win32,60,,,,,,,,,
,,0.11379143,0.010071432,1,0,0,8.9457,probe3,"[0.1,0]",0,1,1,1,1,2,probe1,0.05,0.05,0.2,0,#d55e00,#009e73,#FFFFFF,0.2,-0.1,#e69f00,#e69f00,#e69f00,0.1,0,#4A4A4A,#4A4A4A,#4A4A4A,-0.1,0.1,#56b4e9,#56b4e9,#56b4e9,-0.1,0,#cc79a7,#cc79a7,#cc79a7,A18JQFU6QCTI6G,001,2020-12-11_20h42.36.601,change-localization,2020.1.2,Win32,60,,,,,,,,,
,,-0.003167635,-0.113385359,1,0,0,5.51977,probe5,"[0,-0.1]",0,2,2,2,1,3,probe1,0.05,0.05,-0.2,-0.2,#f0e442,#009e73,#FFFFFF,0.2,-0.1,#d55e00,#d55e00,#d55e00,-0.2,0,#4A4A4A,#4A4A4A,#4A4A4A,-0.1,-0.1,#0072b2,#0072b2,#0072b2,0,-0.1,#56b4e9,#56b4e9,#56b4e9,A18JQFU6QCTI6G,001,2020-12-11_20h42.36.601,change-localization,2020.1.2,Win32,60,,,,,,,,,
,,-0.205896681,-0.015919472,1,0,0,8.59797,probe4,"[-0.2,0]",0,3,3,3,1,4,probe1,0.05,0.05,0.2,0.2,#d55e00,#56b4e9,#FFFFFF,-0.2,0.2,#f0e442,#f0e442,#f0e442,0.2,-0.2,#0072b2,#0072b2,#0072b2,-0.2,0,#cc79a7,#cc79a7,#cc79a7,-0.2,0.1,#4A4A4A,#4A4A4A,#4A4A4A,A18JQFU6QCTI6G,001,2020-12-11_20h42.36.601,change-localization,2020.1.2,Win32,60,,,,,,,,,
,,0.004629795,0.208901843,1,0,0,5.6178,probe2,"[0,0.2]",0,4,4,4,1,5,probe3,0.05,0.05,-0.2,0.1,#56b4e9,#56b4e9,#56b4e9,0,0.2,#009e73,#009e73,#009e73,0,0.1,#0072b2,#cc79a7,#FFFFFF,-0.1,-0.1,#4A4A4A,#4A4A4A,#4A4A4A,0.2,0,#f0e442,#f0e442,#f0e442,A18JQFU6QCTI6G,001,2020-12-11_20h42.36.601,change-localization,2020.1.2,Win32,60,,,,,,,,,
,,-0.212394407,-0.012020797,1,0,0,4.829675,probe3,"[-0.2,0]",0,5,5,5,1,6,probe5,0.05,0.05,-0.1,0.1,#f0e442,#f0e442,#f0e442,0,0.1,#009e73,#009e73,#009e73,-0.2,0,#4A4A4A,#4A4A4A,#4A4A4A,0,-0.2,#d55e00,#d55e00,#d55e00,0.1,0,#cc79a7,#0072b2,#FFFFFF,A18JQFU6QCTI6G,001,2020-12-11_20h42.36.601,change-localization,2020.1.2,Win32,60,,,,,,,,,
,,-0.098034432,-0.19135803,1,0,0,2.590335,probe3,"[-0.1,-0.2]",0,6,6,6,1,7,probe2,0.05,0.05,-0.2,-0.2,#4A4A4A,#4A4A4A,#4A4A4A,0.1,0.2,#0072b2,#d55e00,#FFFFFF,-0.1,-0.2,#f0e442,#f0e442,#f0e442,-0.2,0.2,#009e73,#009e73,#009e73,0.2,0.2,#e69f00,#e69f00,#e69f00,A18JQFU6QCTI6G,001,2020-12-11_20h42.36.601,change-localization,2020.1.2,Win32,60,,,,,,,,,
,,-0.191601684,-0.00292402,1,0,0,3.49624,probe4,"[-0.2,0]",0,7,7,7,1,8,probe1,0.05,0.05,0.1,-0.2,#009e73,#f0e442,#FFFFFF,-0.1,0,#d55e00,#d55e00,#d55e00,-0.1,0.1,#4A4A4A,#4A4A4A,#4A4A4A,-0.2,0,#cc79a7,#cc79a7,#cc79a7,0.2,0,#e69f00,#e69f00,#e69f00,A18JQFU6QCTI6G,001,2020-12-11_20h42.36.601,change-localization,2020.1.2,Win32,60,,,,,,,,,
,,-0.073343074,0.206302792,1,0,0,7.44571,probe2,"[-0.1,0.2]",0,8,8,8,1,9,probe1,0.05,0.05,0.1,-0.2,#0072b2,#e69f00,#FFFFFF,-0.1,0.2,#f0e442,#f0e442,#f0e442,-0.2,0.1,#d55e00,#d55e00,#d55e00,0.2,0.2,#cc79a7,#cc79a7,#cc79a7,0.1,0.1,#56b4e9,#56b4e9,#56b4e9,A18JQFU6QCTI6G,001,2020-12-11_20h42.36.601,change-localization,2020.1.2,Win32,60,,,,,,,,,
,,0.091699163,-0.201754391,1,0,0,4.787655,probe4,"[0.1,-0.2]",0,9,9,9,1,10,probe1,0.05,0.05,-0.1,-0.1,#4A4A4A,#f0e442,#FFFFFF,0,0.2,#cc79a7,#cc79a7,#cc79a7,0.2,-0.2,#e69f00,#e69f00,#e69f00,0.1,-0.2,#009e73,#009e73,#009e73,0.1,0.1,#d55e00,#d55e00,#d55e00,A18JQFU6QCTI6G,001,2020-12-11_20h42.36.601,change-localization,2020.1.2,Win32,60,,,,,,,,,
,,-0.014863462,-0.210851207,1,0,0,2.974185,probe4,"[0,-0.2]",,,,,,1,probe2,0.05,0.05,-0.2,0.2,#009e73,#009e73,,-0.1,0.2,#f0e442,#e69f00,,-0.1,0,#0072b2,#0072b2,,0,-0.2,#cc79a7,#cc79a7,,0,0.2,#d55e00,#d55e00,,A18JQFU6QCTI6G,001,2020-12-11_20h42.36.601,change-localization,2020.1.2,Win32,60,c,8.338225,0,0,0,0,1,,
,,-0.018762177,-0.106887634,1,0,0,2.78229,probe5,"[0,-0.1]",,,,,,2,probe5,0.05,0.05,0,0.1,#009e73,#009e73,,0.2,0.1,#4A4A4A,#4A4A4A,,-0.1,-0.1,#cc79a7,#cc79a7,,0.1,0.1,#d55e00,#d55e00,,0,-0.1,#56b4e9,#e69f00,,A18JQFU6QCTI6G,001,2020-12-11_20h42.36.601,change-localization,2020.1.2,Win32,60,,,0,1,1,1,1,,
,,-0.090237161,0.099740088,1,0,0,3.87461,probe4,"[-0.1,0.1]",,,,,,3,probe4,0.05,0.05,0.1,-0.1,#56b4e9,#56b4e9,,0.2,0,#f0e442,#f0e442,,0.2,-0.1,#e69f00,#e69f00,,-0.1,0.1,#4A4A4A,#009e73,,-0.1,0.2,#d55e00,#d55e00,,A18JQFU6QCTI6G,001,2020-12-11_20h42.36.601,change-localization,2020.1.2,Win32,60,,,0,2,2,2,1,,
,,-0.203297591,-0.204353482,1,0,0,4.07452,probe2,"[-0.2,-0.2]",,,,,,4,probe5,0.05,0.05,0.2,0,#56b4e9,#56b4e9,,-0.2,-0.2,#cc79a7,#cc79a7,,0,0.2,#4A4A4A,#4A4A4A,,0.2,-0.2,#e69f00,#e69f00,,-0.2,0,#f0e442,#009e73,,A18JQFU6QCTI6G,001,2020-12-11_20h42.36.601,change-localization,2020.1.2,Win32,60,,,0,3,3,3,1,,
,,-0.094135717,-0.096491233,1,0,0,2.25086,probe3,"[-0.1,-0.1]",,,,,,5,probe3,0.05,0.05,-0.2,0.1,#4A4A4A,#4A4A4A,,0.2,0.2,#009e73,#009e73,,-0.1,-0.1,#0072b2,#f0e442,,0.2,0,#cc79a7,#cc79a7,,0.1,0.1,#e69f00,#e69f00,,A18JQFU6QCTI6G,001,2020-12-11_20h42.36.601,change-localization,2020.1.2,Win32,60,,,0,4,4,4,1,,
,,-0.00706627,0.198505521,1,0,0,4.87487,probe4,"[0,0.2]",,,,,,6,probe4,0.05,0.05,-0.1,0.1,#d55e00,#d55e00,,-0.2,0.2,#0072b2,#0072b2,,0,-0.1,#e69f00,#e69f00,,0,0.2,#56b4e9,#4A4A4A,,-0.2,-0.2,#009e73,#009e73,,A18JQFU6QCTI6G,001,2020-12-11_20h42.36.601,change-localization,2020.1.2,Win32,60,,,0,5,5,5,1,,
,,0.204759592,0.203703682,1,0,0,1.887395,probe4,"[0.2,0.2]",,,,,,7,probe4,0.05,0.05,0.2,-0.1,#56b4e9,#56b4e9,,-0.1,-0.1,#e69f00,#e69f00,,-0.2,0.2,#009e73,#009e73,,0.2,0.2,#cc79a7,#4A4A4A,,0.2,-0.2,#d55e00,#d55e00,,A18JQFU6QCTI6G,001,2020-12-11_20h42.36.601,change-localization,2020.1.2,Win32,60,,,0,6,6,6,1,,
,,-0.213693952,0.202404117,1,0,0,4.098605,probe4,"[-0.2,0.2]",,,,,,8,probe4,0.05,0.05,-0.2,0.1,#e69f00,#e69f00,,0.1,0.2,#cc79a7,#cc79a7,,0.2,0.1,#4A4A4A,#4A4A4A,,-0.2,0.2,#56b4e9,#d55e00,,0.2,-0.1,#0072b2,#0072b2,,A18JQFU6QCTI6G,001,2020-12-11_20h42.36.601,change-localization,2020.1.2,Win32,60,,,0,7,7,7,1,,
,,-0.208495771,0.103638723,1,0,0,5.101265,probe3,"[-0.2,0.1]",,,,,,9,probe5,0.05,0.05,-0.1,0,#4A4A4A,#4A4A4A,,0.1,0.1,#56b4e9,#56b4e9,,-0.2,0.1,#009e73,#009e73,,0.2,0.1,#cc79a7,#cc79a7,,0.2,0.2,#d55e00,#f0e442,,A18JQFU6QCTI6G,001,2020-12-11_20h42.36.601,change-localization,2020.1.2,Win32,60,,,0,8,8,8,1,,
,,0.098196888,-0.11598445,1,0,0,2.508125,probe2,"[0.1,-0.1]",,,,,,10,probe3,0.05,0.05,0.2,0.2,#f0e442,#f0e442,,0.1,-0.1,#e69f00,#e69f00,,0,0.1,#cc79a7,#4A4A4A,,-0.2,0.1,#56b4e9,#56b4e9,,0.2,0,#0072b2,#0072b2,,A18JQFU6QCTI6G,001,2020-12-11_20h42.36.601,change-localization,2020.1.2,Win32,60,,,0,9,9,9,1,,
,,0.089100152,0.185510049,1,0,0,4.376185,probe2,"[0.1,0.2]",,,,,,11,probe5,0.05,0.05,0.2,0.2,#4A4A4A,#4A4A4A,,0.1,0.2,#0072b2,#0072b2,,0.1,-0.1,#cc79a7,#cc79a7,,0,-0.2,#009e73,#009e73,,0.1,-0.2,#f0e442,#d55e00,,A18JQFU6QCTI6G,001,2020-12-11_20h42.36.601,change-localization,2020.1.2,Win32,60,,,0,10,10,10,1,,
,,-0.083739435,-0.096491233,1,0,0,4.99706,probe1,"[-0.1,-0.1]",,,,,,12,probe4,0.05,0.05,-0.1,-0.1,#009e73,#009e73,,-0.1,0,#56b4e9,#56b4e9,,-0.1,-0.2,#0072b2,#0072b2,,0.1,0,#d55e00,#f0e442,,0,-0.1,#cc79a7,#cc79a7,,A18JQFU6QCTI6G,001,2020-12-11_20h42.36.601,change-localization,2020.1.2,Win32,60,,,0,11,11,11,1,,
,,-0.017462632,-0.105588049,1,0,0,4.455185,probe1,"[0,-0.1]",,,,,,13,probe4,0.05,0.05,0,-0.1,#f0e442,#f0e442,,0.1,-0.1,#d55e00,#d55e00,,0.1,0.1,#0072b2,#0072b2,,-0.2,0.2,#cc79a7,#4A4A4A,,0.1,0.2,#009e73,#009e73,,A18JQFU6QCTI6G,001,2020-12-11_20h42.36.601,change-localization,2020.1.2,Win32,60,,,0,12,12,12,1,,
,,0.002030546,0.205003247,1,0,0,6.959115,probe1,"[0,0.2]",,,,,,14,probe5,0.05,0.05,0,0.2,#cc79a7,#cc79a7,,0,-0.1,#4A4A4A,#4A4A4A,,-0.2,0,#56b4e9,#56b4e9,,0.1,0.1,#0072b2,#0072b2,,0.1,0.2,#009e73,#e69f00,,A18JQFU6QCTI6G,001,2020-12-11_20h42.36.601,change-localization,2020.1.2,Win32,60,,,0,13,13,13,1,,
,,0.092998787,-0.096491233,1,0,0,4.624585,probe4,"[0.1,-0.1]",,,,,,15,probe3,0.05,0.05,0.2,0.2,#cc79a7,#cc79a7,,0,0.2,#56b4e9,#56b4e9,,0.2,0.1,#d55e00,#4A4A4A,,0.1,-0.1,#f0e442,#f0e442,,0.2,-0.1,#0072b2,#0072b2,,A18JQFU6QCTI6G,001,2020-12-11_20h42.36.601,change-localization,2020.1.2,Win32,60,,,0,14,14,14,1,,
,,-0.185103958,0.203703682,1,0,0,3.39268,probe2,"[-0.2,0.2]",,,,,,16,probe3,0.05,0.05,-0.2,-0.1,#f0e442,#f0e442,,-0.2,0.2,#d55e00,#d55e00,,0.1,0.1,#009e73,#4A4A4A,,-0.2,0.1,#56b4e9,#56b4e9,,0,-0.1,#cc79a7,#cc79a7,,A18JQFU6QCTI6G,001,2020-12-11_20h42.36.601,change-localization,2020.1.2,Win32,60,,,0,15,15,15,1,,
,,-0.191601684,-0.108187139,1,0,0,8.364305,probe4,"[-0.2,-0.1]",,,,,,17,probe3,0.05,0.05,0.2,-0.1,#cc79a7,#cc79a7,,0,-0.2,#0072b2,#0072b2,,0,0.1,#4A4A4A,#e69f00,,-0.2,-0.1,#f0e442,#f0e442,,-0.1,-0.1,#009e73,#009e73,,A18JQFU6QCTI6G,001,2020-12-11_20h42.36.601,change-localization,2020.1.2,Win32,60,,,0,16,16,16,1,,
,,0.103395069,-0.099090323,1,0,0,7.55075,probe4,"[0.1,-0.1]",,,,,,18,probe3,0.05,0.05,-0.1,0.1,#d55e00,#d55e00,,-0.1,0.2,#e69f00,#e69f00,,0.2,0,#009e73,#0072b2,,0.1,-0.1,#cc79a7,#cc79a7,,-0.2,0.2,#4A4A4A,#4A4A4A,,A18JQFU6QCTI6G,001,2020-12-11_20h42.36.601,change-localization,2020.1.2,Win32,60,,,0,17,17,17,1,,
,,0.020224178,-0.108187139,1,0,0,3.067325,probe2,"[0,-0.1]",,,,,,19,probe3,0.05,0.05,-0.1,0.2,#0072b2,#0072b2,,0,-0.1,#4A4A4A,#4A4A4A,,-0.1,0.1,#e69f00,#009e73,,0.2,0.1,#d55e00,#d55e00,,-0.2,0.1,#cc79a7,#cc79a7,,A18JQFU6QCTI6G,001,2020-12-11_20h42.36.601,change-localization,2020.1.2,Win32,60,,,0,18,18,18,1,,
,,-0.090237161,0.192007775,1,0,0,5.0045,probe2,"[-0.1,0.2]",,,,,,20,probe4,0.05,0.05,0.2,0,#56b4e9,#56b4e9,,-0.1,0.2,#009e73,#009e73,,-0.2,-0.2,#e69f00,#e69f00,,0,-0.1,#f0e442,#cc79a7,,-0.1,0,#4A4A4A,#4A4A4A,,A18JQFU6QCTI6G,001,2020-12-11_20h42.36.601,change-localization,2020.1.2,Win32,60,,,0,19,19,19,1,,
,,0.199561491,0.007472381,1,0,0,4.78838,probe3,"[0.2,0]",,,,,,21,probe3,0.05,0.05,-0.1,0.1,#0072b2,#0072b2,,-0.1,0.2,#009e73,#009e73,,0.2,0,#56b4e9,#4A4A4A,,-0.2,0.2,#f0e442,#f0e442,,0.2,0.1,#d55e00,#d55e00,,A18JQFU6QCTI6G,001,2020-12-11_20h42.36.601,change-localization,2020.1.2,Win32,60,,,0,20,20,20,1,,
,,0.117690066,-0.183560759,1,0,0,2.725745,probe3,"[0.1,-0.2]",,,,,,22,probe4,0.05,0.05,0.2,-0.1,#d55e00,#d55e00,,0.2,0,#56b4e9,#56b4e9,,0.1,-0.2,#cc79a7,#cc79a7,,-0.2,-0.1,#4A4A4A,#009e73,,0,-0.2,#e69f00,#e69f00,,A18JQFU6QCTI6G,001,2020-12-11_20h42.36.601,change-localization,2020.1.2,Win32,60,,,0,21,21,21,1,,
,,0.117690066,-0.183560759,1,0,0,3.10413,probe5,"[0.1,-0.2]",,,,,,23,probe4,0.05,0.05,0.1,0.1,#56b4e9,#56b4e9,,-0.2,-0.1,#0072b2,#0072b2,,0.2,0,#d55e00,#d55e00,,-0.2,-0.2,#cc79a7,#009e73,,0.1,-0.2,#4A4A4A,#4A4A4A,,A18JQFU6QCTI6G,001,2020-12-11_20h42.36.601,change-localization,2020.1.2,Win32,60,,,0,22,22,22,1,,
,,0.18916505,0.19070825,1,0,0,3.576835,probe2,"[0.2,0.2]",,,,,,24,probe2,0.05,0.05,-0.1,-0.2,#4A4A4A,#4A4A4A,,0.2,0.2,#d55e00,#e69f00,,0.1,-0.1,#f0e442,#f0e442,,0.1,0.1,#56b4e9,#56b4e9,,-0.2,0.1,#cc79a7,#cc79a7,,A18JQFU6QCTI6G,001,2020-12-11_20h42.36.601,change-localization,2020.1.2,Win32,60,,,0,23,23,23,1,,
,,0.187865505,-0.006822616,1,0,0,2.52142,probe3,"[0.2,0]",,,,,,25,probe3,0.05,0.05,-0.2,-0.2,#f0e442,#f0e442,,-0.1,-0.1,#4A4A4A,#4A4A4A,,0.2,0,#d55e00,#cc79a7,,0,0.2,#0072b2,#0072b2,,-0.2,0.1,#009e73,#009e73,,A18JQFU6QCTI6G,001,2020-12-11_20h42.36.601,change-localization,2020.1.2,Win32,60,,,0,24,24,24,1,,
,,-0.111029884,-0.210851207,1,0,0,2.650775,probe3,"[-0.1,-0.2]",,,,,,26,probe3,0.05,0.05,0.1,-0.1,#e69f00,#e69f00,,-0.2,0,#56b4e9,#56b4e9,,-0.1,-0.2,#009e73,#d55e00,,-0.2,-0.1,#4A4A4A,#4A4A4A,,0.1,0,#cc79a7,#cc79a7,,A18JQFU6QCTI6G,001,2020-12-11_20h42.36.601,change-localization,2020.1.2,Win32,60,,,0,25,25,25,1,,
,,-0.107131248,-0.196556211,1,0,0,4.81682,probe1,"[-0.1,-0.2]",,,,,,27,probe5,0.05,0.05,-0.1,-0.2,#009e73,#009e73,,0.2,0,#cc79a7,#cc79a7,,-0.1,-0.1,#e69f00,#e69f00,,0.1,0.1,#d55e00,#d55e00,,-0.2,-0.1,#4A4A4A,#0072b2,,A18JQFU6QCTI6G,001,2020-12-11_20h42.36.601,change-localization,2020.1.2,Win32,60,,,0,26,26,26,1,,
,,0.102095603,-0.019818068,1,0,0,3.149455,probe4,"[0.1,0]",,,,,,28,probe5,0.05,0.05,-0.1,0.2,#009e73,#009e73,,-0.2,0.1,#56b4e9,#56b4e9,,0,-0.2,#d55e00,#d55e00,,0.1,0,#0072b2,#0072b2,,0.1,0.1,#f0e442,#e69f00,,A18JQFU6QCTI6G,001,2020-12-11_20h42.36.601,change-localization,2020.1.2,Win32,60,,,0,27,27,27,1,,
,,0.105994159,-0.101689413,1,0,0,4.14353,probe1,"[0.1,-0.1]",,,,,,29,probe1,0.05,0.05,0.1,-0.1,#4A4A4A,#56b4e9,,-0.2,0.2,#e69f00,#e69f00,,-0.1,-0.1,#f0e442,#f0e442,,0.1,0.2,#0072b2,#0072b2,,-0.1,-0.2,#cc79a7,#cc79a7,,A18JQFU6QCTI6G,001,2020-12-11_20h42.36.601,change-localization,2020.1.2,Win32,60,,,0,28,28,28,1,,
,,-0.090237161,-0.209551662,1,0,0,1.79852,probe2,"[-0.1,-0.2]",,,,,,30,probe2,0.05,0.05,0.1,0.2,#f0e442,#f0e442,,-0.1,-0.2,#d55e00,#4A4A4A,,0,-0.2,#cc79a7,#cc79a7,,0.1,-0.2,#0072b2,#0072b2,,-0.2,0,#009e73,#009e73,,A18JQFU6QCTI6G,001,2020-12-11_20h42.36.601,change-localization,2020.1.2,Win32,60,,,0,29,29,29,1,,
,,-0.098034432,-0.089993507,1,0,0,1.995785,probe5,"[-0.1,-0.1]",,,,,,31,probe5,0.05,0.05,0,-0.2,#d55e00,#d55e00,,0.1,0,#e69f00,#e69f00,,0.1,0.2,#f0e442,#f0e442,,-0.2,-0.1,#cc79a7,#cc79a7,,-0.1,-0.1,#009e73,#4A4A4A,,A18JQFU6QCTI6G,001,2020-12-11_20h42.36.601,change-localization,2020.1.2,Win32,60,,,0,30,30,30,1,,
,,-0.098034432,-0.100389908,1,0,0,2.42629,probe2,"[-0.1,-0.1]",,,,,,32,probe3,0.05,0.05,0.2,0.2,#56b4e9,#56b4e9,,-0.1,-0.1,#009e73,#009e73,,0.2,0.1,#cc79a7,#0072b2,,-0.2,0.1,#4A4A4A,#4A4A4A,,-0.2,-0.1,#f0e442,#f0e442,,A18JQFU6QCTI6G,001,2020-12-11_20h42.36.601,change-localization,2020.1.2,Win32,60,,,0,31,31,31,1,,
,,-0.091536706,0.102339178,1,0,0,2.54904,probe3,"[-0.1,0.1]",,,,,,33,probe3,0.05,0.05,-0.1,-0.1,#0072b2,#0072b2,,0.1,0.1,#cc79a7,#cc79a7,,-0.1,0.1,#f0e442,#009e73,,0,-0.2,#56b4e9,#56b4e9,,0.1,0.2,#e69f00,#e69f00,,A18JQFU6QCTI6G,001,2020-12-11_20h42.36.601,change-localization,2020.1.2,Win32,60,,,0,32,32,32,1,,
,,-0.196799865,0.089343727,1,0,0,5.57158,probe2,"[-0.2,0.1]",,,,,,34,probe5,0.05,0.05,0.2,0.1,#e69f00,#e69f00,,-0.2,0.1,#cc79a7,#cc79a7,,0.1,-0.2,#0072b2,#0072b2,,0.2,-0.2,#d55e00,#d55e00,,-0.2,0,#56b4e9,#009e73,,A18JQFU6QCTI6G,001,2020-12-11_20h42.36.601,change-localization,2020.1.2,Win32,60,,,0,33,33,33,1,,
,,-0.00186801,0.207602337,1,0,0,4.13307,probe4,"[0,0.2]",,,,,,35,probe2,0.05,0.05,0.2,0,#56b4e9,#56b4e9,,0.2,-0.1,#e69f00,#009e73,,0.1,-0.1,#f0e442,#f0e442,,0,0.2,#d55e00,#d55e00,,0.1,0.2,#cc79a7,#cc79a7,,A18JQFU6QCTI6G,001,2020-12-11_20h42.36.601,change-localization,2020.1.2,Win32,60,,,0,34,34,34,1,,
,,-0.095435342,-0.108187139,1,0,0,3.84462,probe4,"[-0.1,-0.1]",,,,,,36,probe3,0.05,0.05,0,0.1,#4A4A4A,#4A4A4A,,0.2,0.1,#009e73,#009e73,,-0.2,-0.1,#f0e442,#56b4e9,,-0.1,-0.1,#e69f00,#e69f00,,0.1,0,#0072b2,#0072b2,,A18JQFU6QCTI6G,001,2020-12-11_20h42.36.601,change-localization,2020.1.2,Win32,60,,,0,35,35,35,1,,
,,0.099496434,0.098440543,1,0,0,4.927285,probe2,"[0.1,0.1]",,,,,,37,probe5,0.05,0.05,-0.2,0.1,#e69f00,#e69f00,,0.1,0.1,#0072b2,#0072b2,,-0.2,0,#d55e00,#d55e00,,-0.1,0.2,#cc79a7,#cc79a7,,0.1,0,#009e73,#f0e442,,A18JQFU6QCTI6G,001,2020-12-11_20h42.36.601,change-localization,2020.1.2,Win32,60,,,0,36,36,36,1,,
,,-0.012264372,-0.099090323,1,0,0,5.15772,probe5,"[0,-0.1]",,,,,,38,probe4,0.05,0.05,0.2,-0.2,#4A4A4A,#4A4A4A,,0.2,0,#0072b2,#0072b2,,0.1,-0.1,#e69f00,#e69f00,,0.1,0,#d55e00,#cc79a7,,0,-0.1,#009e73,#009e73,,A18JQFU6QCTI6G,001,2020-12-11_20h42.36.601,change-localization,2020.1.2,Win32,60,,,0,37,37,37,1,,
,,-0.218892133,-0.092592637,1,0,0,4.863215,probe2,"[-0.2,-0.1]",,,,,,39,probe4,0.05,0.05,0.1,-0.1,#e69f00,#e69f00,,-0.2,-0.1,#cc79a7,#cc79a7,,0.2,0.1,#d55e00,#d55e00,,-0.2,0.2,#56b4e9,#f0e442,,0,-0.1,#0072b2,#0072b2,,A18JQFU6QCTI6G,001,2020-12-11_20h42.36.601,change-localization,2020.1.2,Win32,60,,,0,38,38,38,1,,
,,-0.19809941,0.120532811,1,0,0,3.62772,probe1,"[-0.2,0.1]",,,,,,40,probe1,0.05,0.05,-0.2,0.1,#4A4A4A,#d55e00,,0.2,0.2,#009e73,#009e73,,-0.1,-0.1,#cc79a7,#cc79a7,,0.2,-0.2,#e69f00,#e69f00,,0.1,-0.1,#56b4e9,#56b4e9,,A18JQFU6QCTI6G,001,2020-12-11_20h42.36.601,change-localization,2020.1.2,Win32,60,,,0,39,39,39,1,,
,,-0.101933068,-0.009421746,1,0,0,2.32906,probe4,"[-0.1,0]",,,,,,41,probe4,0.05,0.05,0.2,0.1,#009e73,#009e73,,-0.2,-0.1,#0072b2,#0072b2,,-0.2,-0.2,#56b4e9,#56b4e9,,-0.1,0,#f0e442,#cc79a7,,0,-0.2,#d55e00,#d55e00,,A18JQFU6QCTI6G,001,2020-12-11_20h42.36.601,change-localization,2020.1.2,Win32,60,,,0,40,40,40,1,,
,,-0.092836251,-0.201754391,1,0,0,3.79199,probe1,"[-0.1,-0.2]",,,,,,42,probe4,0.05,0.05,-0.1,-0.2,#009e73,#009e73,,-0.1,0.1,#cc79a7,#cc79a7,,0.1,0.1,#56b4e9,#56b4e9,,0,-0.2,#e69f00,#d55e00,,-0.1,0,#0072b2,#0072b2,,A18JQFU6QCTI6G,001,2020-12-11_20h42.36.601,change-localization,2020.1.2,Win32,60,,,0,41,41,41,1,,
,,-0.213693952,-0.204353482,1,0,0,4.908895,probe3,"[-0.2,-0.2]",,,,,,43,probe1,0.05,0.05,0.2,-0.1,#e69f00,#009e73,,0.1,0,#cc79a7,#cc79a7,,-0.2,-0.2,#f0e442,#f0e442,,0.2,-0.2,#56b4e9,#56b4e9,,-0.2,0.1,#4A4A4A,#4A4A4A,,A18JQFU6QCTI6G,001,2020-12-11_20h42.36.601,change-localization,2020.1.2,Win32,60,,,0,42,42,42,1,,
,,-0.083739435,0.201104611,1,0,0,3.466255,probe1,"[-0.1,0.2]",,,,,,44,probe1,0.05,0.05,-0.1,0.2,#56b4e9,#e69f00,,0.2,0.1,#4A4A4A,#4A4A4A,,0.1,0,#cc79a7,#cc79a7,,0.1,0.2,#f0e442,#f0e442,,-0.1,-0.1,#d55e00,#d55e00,,A18JQFU6QCTI6G,001,2020-12-11_20h42.36.601,change-localization,2020.1.2,Win32,60,,,0,43,43,43,1,,
,,-0.092836251,0.102339178,1,0,0,2.44135,probe3,"[-0.1,0.1]",,,,,,45,probe3,0.05,0.05,-0.2,0.2,#0072b2,#0072b2,,-0.2,-0.1,#56b4e9,#56b4e9,,-0.1,0.1,#f0e442,#e69f00,,-0.1,0.2,#d55e00,#d55e00,,0,-0.2,#cc79a7,#cc79a7,,A18JQFU6QCTI6G,001,2020-12-11_20h42.36.601,change-localization,2020.1.2,Win32,60,,,0,44,44,44,1,,
,,0.199561491,-0.206952572,1,0,0,4.946785,probe3,"[0.2,-0.2]",,,,,,46,probe5,0.05,0.05,0.2,0.1,#0072b2,#0072b2,,0.1,0.2,#f0e442,#f0e442,,0.2,-0.2,#009e73,#009e73,,0.2,0.2,#4A4A4A,#4A4A4A,,0.2,0,#cc79a7,#e69f00,,A18JQFU6QCTI6G,001,2020-12-11_20h42.36.601,change-localization,2020.1.2,Win32,60,,,0,45,45,45,1,,
,,-0.218892133,0.198505521,1,0,0,4.895025,probe2,"[-0.2,0.2]",,,,,,47,probe3,0.05,0.05,0,-0.1,#009e73,#009e73,,-0.2,0.2,#f0e442,#f0e442,,0.2,0.2,#56b4e9,#cc79a7,,-0.1,0.2,#4A4A4A,#4A4A4A,,-0.1,0.1,#e69f00,#e69f00,,A18JQFU6QCTI6G,001,2020-12-11_20h42.36.601,change-localization,2020.1.2,Win32,60,,,0,46,46,46,1,,
,,-0.108430793,-0.00292402,1,0,0,4.904475,probe5,"[-0.1,0]",,,,,,48,probe4,0.05,0.05,0.2,-0.2,#cc79a7,#cc79a7,,-0.1,0.1,#009e73,#009e73,,0.1,-0.2,#f0e442,#f0e442,,-0.2,-0.1,#d55e00,#0072b2,,-0.1,0,#56b4e9,#56b4e9,,A18JQFU6QCTI6G,001,2020-12-11_20h42.36.601,change-localization,2020.1.2,Win32,60,,,0,47,47,47,1,,
,,-0.105831624,-0.099090323,1,0,0,5.60048,probe5,"[-0.1,-0.1]",,,,,,49,probe2,0.05,0.05,0,-0.2,#e69f00,#e69f00,,-0.2,0,#cc79a7,#0072b2,,-0.1,0.2,#f0e442,#f0e442,,0.1,0.2,#4A4A4A,#4A4A4A,,-0.1,-0.1,#56b4e9,#56b4e9,,A18JQFU6QCTI6G,001,2020-12-11_20h42.36.601,change-localization,2020.1.2,Win32,60,,,0,48,48,48,1,,
,,0.186566039,0.098440543,1,0,0,5.46023,probe1,"[0.2,0.1]",,,,,,50,probe4,0.05,0.05,0.2,0.1,#0072b2,#0072b2,,0.1,0.1,#cc79a7,#cc79a7,,0.1,-0.2,#56b4e9,#56b4e9,,-0.1,0,#009e73,#e69f00,,0,0.1,#d55e00,#d55e00,,A18JQFU6QCTI6G,001,2020-12-11_20h42.36.601,change-localization,2020.1.2,Win32,60,,,0,49,49,49,1,,
,,,,,,,,,,,,,,,,,,,,,,,,,,,,,,,,,,,,,,,,,,,,A18JQFU6QCTI6G,001,2020-12-11_20h42.36.601,change-localization,2020.1.2,Win32,60,,,,,,,,c,28.139805
