key_resp.keys,key_resp.rt,mouse.x,mouse.y,mouse.leftButton,mouse.midButton,mouse.rightButton,mouse.time,mouse.clicked_name,mouse.clicked_pos,training.thisRepN,training.thisTrialN,training.thisN,training.thisIndex,training.ran,trial,answer,height,width,x1,y1,stim_color1,probe_color1,copy_color1,x2,y2,stim_color2,probe_color2,copy_color2,x3,y3,stim_color3,probe_color3,copy_color3,x4,y4,stim_color4,probe_color4,copy_color4,x5,y5,stim_color5,probe_color5,copy_color5,participant,session,date,expName,psychopyVersion,OS,frameRate,key_resp_2.keys,key_resp_2.rt,trials.thisRepN,trials.thisTrialN,trials.thisN,trials.thisIndex,trials.ran,completion_keys.keys,completion_keys.rt
c,26.384425,0.108544678,0.182466221,1,0,0,2.65081,probe1,"[0.1,0.2]",0,0,0,0,1,1,probe4,0.05,0.05,0.1,0.2,#0072b2,#0072b2,#0072b2,0.1,-0.1,#e69f00,#e69f00,#e69f00,-0.1,-0.2,#cc79a7,#cc79a7,#cc79a7,0.2,-0.1,#4A4A4A,#f0e442,#FFFFFF,0.2,0,#009e73,#009e73,#009e73,A1FZ1803WJWRC5,001,2020-12-12_09h06.44.900,change-localization,2020.1.2,Win32,60,,,,,,,,,
,,0.203897387,0.001944102,1,0,0,5.93354,probe1,"[0.2,0]",0,1,1,1,1,2,probe1,0.05,0.05,0.2,0,#d55e00,#009e73,#FFFFFF,0.2,-0.1,#e69f00,#e69f00,#e69f00,0.1,0,#4A4A4A,#4A4A4A,#4A4A4A,-0.1,0.1,#56b4e9,#56b4e9,#56b4e9,-0.1,0,#cc79a7,#cc79a7,#cc79a7,A1FZ1803WJWRC5,001,2020-12-12_09h06.44.900,change-localization,2020.1.2,Win32,60,,,,,,,,,
,,-0.17566194,-0.210979366,1,0,0,2.4665,probe1,"[-0.2,-0.2]",0,2,2,2,1,3,probe1,0.05,0.05,-0.2,-0.2,#f0e442,#009e73,#FFFFFF,0.2,-0.1,#d55e00,#d55e00,#d55e00,-0.2,0,#4A4A4A,#4A4A4A,#4A4A4A,-0.1,-0.1,#0072b2,#0072b2,#0072b2,0,-0.1,#56b4e9,#56b4e9,#56b4e9,A1FZ1803WJWRC5,001,2020-12-12_09h06.44.900,change-localization,2020.1.2,Win32,60,,,,,,,,,
,,0.190936825,-0.19801886,1,0,0,3.81987,probe3,"[0.2,-0.2]",0,3,3,3,1,4,probe1,0.05,0.05,0.2,0.2,#d55e00,#56b4e9,#FFFFFF,-0.2,0.2,#f0e442,#f0e442,#f0e442,0.2,-0.2,#0072b2,#0072b2,#0072b2,-0.2,0,#cc79a7,#cc79a7,#cc79a7,-0.2,0.1,#4A4A4A,#4A4A4A,#4A4A4A,A1FZ1803WJWRC5,001,2020-12-12_09h06.44.900,change-localization,2020.1.2,Win32,60,,,,,,,,,
,,0.004860179,0.100074075,1,0,0,1.75042,probe3,"[0,0.1]",0,4,4,4,1,5,probe3,0.05,0.05,-0.2,0.1,#56b4e9,#56b4e9,#56b4e9,0,0.2,#009e73,#009e73,#009e73,0,0.1,#0072b2,#cc79a7,#FFFFFF,-0.1,-0.1,#4A4A4A,#4A4A4A,#4A4A4A,0.2,0,#f0e442,#f0e442,#f0e442,A1FZ1803WJWRC5,001,2020-12-12_09h06.44.900,change-localization,2020.1.2,Win32,60,,,,,,,,,
,,0.102064397,-0.012867969,1,0,0,3.249525,probe5,"[0.1,0]",0,5,5,5,1,6,probe5,0.05,0.05,-0.1,0.1,#f0e442,#f0e442,#f0e442,0,0.1,#009e73,#009e73,#009e73,-0.2,0,#4A4A4A,#4A4A4A,#4A4A4A,0,-0.2,#d55e00,#d55e00,#d55e00,0.1,0,#cc79a7,#0072b2,#FFFFFF,A1FZ1803WJWRC5,001,2020-12-12_09h06.44.900,change-localization,2020.1.2,Win32,60,,,,,,,,,
,,0.070588746,0.2194964,1,0,0,1.433955,probe2,"[0.1,0.2]",0,6,6,6,1,7,probe2,0.05,0.05,-0.2,-0.2,#4A4A4A,#4A4A4A,#4A4A4A,0.1,0.2,#0072b2,#d55e00,#FFFFFF,-0.1,-0.2,#f0e442,#f0e442,#f0e442,-0.2,0.2,#009e73,#009e73,#009e73,0.2,0.2,#e69f00,#e69f00,#e69f00,A1FZ1803WJWRC5,001,2020-12-12_09h06.44.900,change-localization,2020.1.2,Win32,60,,,,,,,,,
,,0.211303423,-0.00268467,1,0,0,1.988875,probe5,"[0.2,0]",0,7,7,7,1,8,probe1,0.05,0.05,0.1,-0.2,#009e73,#f0e442,#FFFFFF,-0.1,0,#d55e00,#d55e00,#d55e00,-0.1,0.1,#4A4A4A,#4A4A4A,#4A4A4A,-0.2,0,#cc79a7,#cc79a7,#cc79a7,0.2,0,#e69f00,#e69f00,#e69f00,A1FZ1803WJWRC5,001,2020-12-12_09h06.44.900,change-localization,2020.1.2,Win32,60,,,,,,,,,
,,0.117802223,-0.17857796,1,0,0,1.23357,probe1,"[0.1,-0.2]",0,8,8,8,1,9,probe1,0.05,0.05,0.1,-0.2,#0072b2,#e69f00,#FFFFFF,-0.1,0.2,#f0e442,#f0e442,#f0e442,-0.2,0.1,#d55e00,#d55e00,#d55e00,0.2,0.2,#cc79a7,#cc79a7,#cc79a7,0.1,0.1,#56b4e9,#56b4e9,#56b4e9,A1FZ1803WJWRC5,001,2020-12-12_09h06.44.900,change-localization,2020.1.2,Win32,60,,,,,,,,,
,,-0.093269793,-0.118403977,1,0,0,1.633955,probe1,"[-0.1,-0.1]",0,9,9,9,1,10,probe1,0.05,0.05,-0.1,-0.1,#4A4A4A,#f0e442,#FFFFFF,0,0.2,#cc79a7,#cc79a7,#cc79a7,0.2,-0.2,#e69f00,#e69f00,#e69f00,0.1,-0.2,#009e73,#009e73,#009e73,0.1,0.1,#d55e00,#d55e00,#d55e00,A1FZ1803WJWRC5,001,2020-12-12_09h06.44.900,change-localization,2020.1.2,Win32,60,,,,,,,,,
,,-0.09049253,0.228753944,1,0,0,1.05402,probe2,"[-0.1,0.2]",,,,,,1,probe2,0.05,0.05,-0.2,0.2,#009e73,#009e73,,-0.1,0.2,#f0e442,#e69f00,,-0.1,0,#0072b2,#0072b2,,0,-0.2,#cc79a7,#cc79a7,,0,0.2,#d55e00,#d55e00,,A1FZ1803WJWRC5,001,2020-12-12_09h06.44.900,change-localization,2020.1.2,Win32,60,c,7.32317,0,0,0,0,1,,
,,-0.111784882,-0.099888888,1,0,0,1.43573,probe3,"[-0.1,-0.1]",,,,,,2,probe5,0.05,0.05,0,0.1,#009e73,#009e73,,0.2,0.1,#4A4A4A,#4A4A4A,,-0.1,-0.1,#cc79a7,#cc79a7,,0.1,0.1,#d55e00,#d55e00,,0,-0.1,#56b4e9,#e69f00,,A1FZ1803WJWRC5,001,2020-12-12_09h06.44.900,change-localization,2020.1.2,Win32,60,,,0,1,1,1,1,,
,,-0.09882432,0.188020748,1,0,0,0.98443,probe5,"[-0.1,0.2]",,,,,,3,probe4,0.05,0.05,0.1,-0.1,#56b4e9,#56b4e9,,0.2,0,#f0e442,#f0e442,,0.2,-0.1,#e69f00,#e69f00,,-0.1,0.1,#4A4A4A,#009e73,,-0.1,0.2,#d55e00,#d55e00,,A1FZ1803WJWRC5,001,2020-12-12_09h06.44.900,change-localization,2020.1.2,Win32,60,,,0,2,2,2,1,,
,,-0.206211837,-0.004536179,1,0,0,1.269,probe5,"[-0.2,0]",,,,,,4,probe5,0.05,0.05,0.2,0,#56b4e9,#56b4e9,,-0.2,-0.2,#cc79a7,#cc79a7,,0,0.2,#4A4A4A,#4A4A4A,,0.2,-0.2,#e69f00,#e69f00,,-0.2,0,#f0e442,#009e73,,A1FZ1803WJWRC5,001,2020-12-12_09h06.44.900,change-localization,2020.1.2,Win32,60,,,0,3,3,3,1,,
,,0.203897387,-0.009164951,1,0,0,2.01915,probe4,"[0.2,0]",,,,,,5,probe3,0.05,0.05,-0.2,0.1,#4A4A4A,#4A4A4A,,0.2,0.2,#009e73,#009e73,,-0.1,-0.1,#0072b2,#f0e442,,0.2,0,#cc79a7,#cc79a7,,0.1,0.1,#e69f00,#e69f00,,A1FZ1803WJWRC5,001,2020-12-12_09h06.44.900,change-localization,2020.1.2,Win32,60,,,0,4,4,4,1,,
,,0.013191969,0.200055556,1,0,0,1.102385,probe4,"[0,0.2]",,,,,,6,probe4,0.05,0.05,-0.1,0.1,#d55e00,#d55e00,,-0.2,0.2,#0072b2,#0072b2,,0,-0.1,#e69f00,#e69f00,,0,0.2,#56b4e9,#4A4A4A,,-0.2,-0.2,#009e73,#009e73,,A1FZ1803WJWRC5,001,2020-12-12_09h06.44.900,change-localization,2020.1.2,Win32,60,,,0,5,5,5,1,,
,,0.213154932,0.189872257,1,0,0,1.219355,probe4,"[0.2,0.2]",,,,,,7,probe4,0.05,0.05,0.2,-0.1,#56b4e9,#56b4e9,,-0.1,-0.1,#e69f00,#e69f00,,-0.2,0.2,#009e73,#009e73,,0.2,0.2,#cc79a7,#4A4A4A,,0.2,-0.2,#d55e00,#d55e00,,A1FZ1803WJWRC5,001,2020-12-12_09h06.44.900,change-localization,2020.1.2,Win32,60,,,0,6,6,6,1,,
,,0.186308053,-0.102666151,1,0,0,1.817855,probe5,"[0.2,-0.1]",,,,,,8,probe4,0.05,0.05,-0.2,0.1,#e69f00,#e69f00,,0.1,0.2,#cc79a7,#cc79a7,,0.2,0.1,#4A4A4A,#4A4A4A,,-0.2,0.2,#56b4e9,#d55e00,,0.2,-0.1,#0072b2,#0072b2,,A1FZ1803WJWRC5,001,2020-12-12_09h06.44.900,change-localization,2020.1.2,Win32,60,,,0,7,7,7,1,,
,,-0.07382895,-0.031383058,1,0,0,1.65086,probe1,"[-0.1,0]",,,,,,9,probe5,0.05,0.05,-0.1,0,#4A4A4A,#4A4A4A,,0.1,0.1,#56b4e9,#56b4e9,,-0.2,0.1,#009e73,#009e73,,0.2,0.1,#cc79a7,#cc79a7,,0.2,0.2,#d55e00,#f0e442,,A1FZ1803WJWRC5,001,2020-12-12_09h06.44.900,change-localization,2020.1.2,Win32,60,,,0,8,8,8,1,,
,,-0.207137591,0.085262003,1,0,0,2.019855,probe4,"[-0.2,0.1]",,,,,,10,probe3,0.05,0.05,0.2,0.2,#f0e442,#f0e442,,0.1,-0.1,#e69f00,#e69f00,,0,0.1,#cc79a7,#4A4A4A,,-0.2,0.1,#56b4e9,#56b4e9,,0.2,0,#0072b2,#0072b2,,A1FZ1803WJWRC5,001,2020-12-12_09h06.44.900,change-localization,2020.1.2,Win32,60,,,0,9,9,9,1,,
,,0.082623553,-0.202647633,1,0,0,1.40267,probe5,"[0.1,-0.2]",,,,,,11,probe5,0.05,0.05,0.2,0.2,#4A4A4A,#4A4A4A,,0.1,0.2,#0072b2,#0072b2,,0.1,-0.1,#cc79a7,#cc79a7,,0,-0.2,#009e73,#009e73,,0.1,-0.2,#f0e442,#d55e00,,A1FZ1803WJWRC5,001,2020-12-12_09h06.44.900,change-localization,2020.1.2,Win32,60,,,0,10,10,10,1,,
,,-0.084012249,-0.185984052,1,0,0,3.25385,probe3,"[-0.1,-0.2]",,,,,,12,probe4,0.05,0.05,-0.1,-0.1,#009e73,#009e73,,-0.1,0,#56b4e9,#56b4e9,,-0.1,-0.2,#0072b2,#0072b2,,0.1,0,#d55e00,#f0e442,,0,-0.1,#cc79a7,#cc79a7,,A1FZ1803WJWRC5,001,2020-12-12_09h06.44.900,change-localization,2020.1.2,Win32,60,,,0,11,11,11,1,,
,,0.084475062,-0.106369169,1,0,0,1.2025,probe2,"[0.1,-0.1]",,,,,,13,probe4,0.05,0.05,0,-0.1,#f0e442,#f0e442,,0.1,-0.1,#d55e00,#d55e00,,0.1,0.1,#0072b2,#0072b2,,-0.2,0.2,#cc79a7,#4A4A4A,,0.1,0.2,#009e73,#009e73,,A1FZ1803WJWRC5,001,2020-12-12_09h06.44.900,change-localization,2020.1.2,Win32,60,,,0,12,12,12,1,,
,,0.109470433,0.193575275,1,0,0,1.18559,probe5,"[0.1,0.2]",,,,,,14,probe5,0.05,0.05,0,0.2,#cc79a7,#cc79a7,,0,-0.1,#4A4A4A,#4A4A4A,,-0.2,0,#56b4e9,#56b4e9,,0.1,0.1,#0072b2,#0072b2,,0.1,0.2,#009e73,#e69f00,,A1FZ1803WJWRC5,001,2020-12-12_09h06.44.900,change-localization,2020.1.2,Win32,60,,,0,13,13,13,1,,
,,0.118727977,-0.113775205,1,0,0,1.452765,probe4,"[0.1,-0.1]",,,,,,15,probe3,0.05,0.05,0.2,0.2,#cc79a7,#cc79a7,,0,0.2,#56b4e9,#56b4e9,,0.2,0.1,#d55e00,#4A4A4A,,0.1,-0.1,#f0e442,#f0e442,,0.2,-0.1,#0072b2,#0072b2,,A1FZ1803WJWRC5,001,2020-12-12_09h06.44.900,change-localization,2020.1.2,Win32,60,,,0,14,14,14,1,,
,,0.118727977,0.104702875,1,0,0,0.95266,probe3,"[0.1,0.1]",,,,,,16,probe3,0.05,0.05,-0.2,-0.1,#f0e442,#f0e442,,-0.2,0.2,#d55e00,#d55e00,,0.1,0.1,#009e73,#4A4A4A,,-0.2,0.1,#56b4e9,#56b4e9,,0,-0.1,#cc79a7,#cc79a7,,A1FZ1803WJWRC5,001,2020-12-12_09h06.44.900,change-localization,2020.1.2,Win32,60,,,0,15,15,15,1,,
,,0.025226777,0.115811929,1,0,0,1.136315,probe3,"[0,0.1]",,,,,,17,probe3,0.05,0.05,0.2,-0.1,#cc79a7,#cc79a7,,0,-0.2,#0072b2,#0072b2,,0,0.1,#4A4A4A,#e69f00,,-0.2,-0.1,#f0e442,#f0e442,,-0.1,-0.1,#009e73,#009e73,,A1FZ1803WJWRC5,001,2020-12-12_09h06.44.900,change-localization,2020.1.2,Win32,60,,,0,16,16,16,1,,
,,0.222412476,-0.024902777,1,0,0,1.904345,probe3,"[0.2,0]",,,,,,18,probe3,0.05,0.05,-0.1,0.1,#d55e00,#d55e00,,-0.1,0.2,#e69f00,#e69f00,,0.2,0,#009e73,#0072b2,,0.1,-0.1,#cc79a7,#cc79a7,,-0.2,0.2,#4A4A4A,#4A4A4A,,A1FZ1803WJWRC5,001,2020-12-12_09h06.44.900,change-localization,2020.1.2,Win32,60,,,0,17,17,17,1,,
,,-0.094195548,0.08248474,1,0,0,1.268885,probe3,"[-0.1,0.1]",,,,,,19,probe3,0.05,0.05,-0.1,0.2,#0072b2,#0072b2,,0,-0.1,#4A4A4A,#4A4A4A,,-0.1,0.1,#e69f00,#009e73,,0.2,0.1,#d55e00,#d55e00,,-0.2,0.1,#cc79a7,#cc79a7,,A1FZ1803WJWRC5,001,2020-12-12_09h06.44.900,change-localization,2020.1.2,Win32,60,,,0,18,18,18,1,,
,,-0.014580721,-0.078596536,1,0,0,0.88645,probe4,"[0,-0.1]",,,,,,20,probe4,0.05,0.05,0.2,0,#56b4e9,#56b4e9,,-0.1,0.2,#009e73,#009e73,,-0.2,-0.2,#e69f00,#e69f00,,0,-0.1,#f0e442,#cc79a7,,-0.1,0,#4A4A4A,#4A4A4A,,A1FZ1803WJWRC5,001,2020-12-12_09h06.44.900,change-localization,2020.1.2,Win32,60,,,0,19,19,19,1,,
,,-0.12381969,0.239862998,1,0,0,1.719805,probe2,"[-0.1,0.2]",,,,,,21,probe3,0.05,0.05,-0.1,0.1,#0072b2,#0072b2,,-0.1,0.2,#009e73,#009e73,,0.2,0,#56b4e9,#4A4A4A,,-0.2,0.2,#f0e442,#f0e442,,0.2,0.1,#d55e00,#d55e00,,A1FZ1803WJWRC5,001,2020-12-12_09h06.44.900,change-localization,2020.1.2,Win32,60,,,0,20,20,20,1,,
,,-0.187696748,-0.08785408,1,0,0,1.51823,probe4,"[-0.2,-0.1]",,,,,,22,probe4,0.05,0.05,0.2,-0.1,#d55e00,#d55e00,,0.2,0,#56b4e9,#56b4e9,,0.1,-0.2,#cc79a7,#cc79a7,,-0.2,-0.1,#4A4A4A,#009e73,,0,-0.2,#e69f00,#e69f00,,A1FZ1803WJWRC5,001,2020-12-12_09h06.44.900,change-localization,2020.1.2,Win32,60,,,0,21,21,21,1,,
,,0.106693169,-0.209127857,1,0,0,2.318065,probe5,"[0.1,-0.2]",,,,,,23,probe4,0.05,0.05,0.1,0.1,#56b4e9,#56b4e9,,-0.2,-0.1,#0072b2,#0072b2,,0.2,0,#d55e00,#d55e00,,-0.2,-0.2,#cc79a7,#009e73,,0.1,-0.2,#4A4A4A,#4A4A4A,,A1FZ1803WJWRC5,001,2020-12-12_09h06.44.900,change-localization,2020.1.2,Win32,60,,,0,22,22,22,1,,
,,0.098361379,0.09081653,1,0,0,3.50472,probe4,"[0.1,0.1]",,,,,,24,probe2,0.05,0.05,-0.1,-0.2,#4A4A4A,#4A4A4A,,0.2,0.2,#d55e00,#e69f00,,0.1,-0.1,#f0e442,#f0e442,,0.1,0.1,#56b4e9,#56b4e9,,-0.2,0.1,#cc79a7,#cc79a7,,A1FZ1803WJWRC5,001,2020-12-12_09h06.44.900,change-localization,2020.1.2,Win32,60,,,0,23,23,23,1,,
,,0.20852616,0.026939473,1,0,0,1.82121,probe3,"[0.2,0]",,,,,,25,probe3,0.05,0.05,-0.2,-0.2,#f0e442,#f0e442,,-0.1,-0.1,#4A4A4A,#4A4A4A,,0.2,0,#d55e00,#cc79a7,,0,0.2,#0072b2,#0072b2,,-0.2,0.1,#009e73,#009e73,,A1FZ1803WJWRC5,001,2020-12-12_09h06.44.900,change-localization,2020.1.2,Win32,60,,,0,24,24,24,1,,
,,-0.117339409,-0.218385458,1,0,0,1.269635,probe3,"[-0.1,-0.2]",,,,,,26,probe3,0.05,0.05,0.1,-0.1,#e69f00,#e69f00,,-0.2,0,#56b4e9,#56b4e9,,-0.1,-0.2,#009e73,#d55e00,,-0.2,-0.1,#4A4A4A,#4A4A4A,,0.1,0,#cc79a7,#cc79a7,,A1FZ1803WJWRC5,001,2020-12-12_09h06.44.900,change-localization,2020.1.2,Win32,60,,,0,25,25,25,1,,
,,0.188159562,-0.008239197,1,0,0,1.701155,probe2,"[0.2,0]",,,,,,27,probe5,0.05,0.05,-0.1,-0.2,#009e73,#009e73,,0.2,0,#cc79a7,#cc79a7,,-0.1,-0.1,#e69f00,#e69f00,,0.1,0.1,#d55e00,#d55e00,,-0.2,-0.1,#4A4A4A,#0072b2,,A1FZ1803WJWRC5,001,2020-12-12_09h06.44.900,change-localization,2020.1.2,Win32,60,,,0,26,26,26,1,,
,,0.101138643,0.084336277,1,0,0,1.869755,probe5,"[0.1,0.1]",,,,,,28,probe5,0.05,0.05,-0.1,0.2,#009e73,#009e73,,-0.2,0.1,#56b4e9,#56b4e9,,0,-0.2,#d55e00,#d55e00,,0.1,0,#0072b2,#0072b2,,0.1,0.1,#f0e442,#e69f00,,A1FZ1803WJWRC5,001,2020-12-12_09h06.44.900,change-localization,2020.1.2,Win32,60,,,0,27,27,27,1,,
,,0.095584116,-0.123958504,1,0,0,2.536,probe1,"[0.1,-0.1]",,,,,,29,probe1,0.05,0.05,0.1,-0.1,#4A4A4A,#56b4e9,,-0.2,0.2,#e69f00,#e69f00,,-0.1,-0.1,#f0e442,#f0e442,,0.1,0.2,#0072b2,#0072b2,,-0.1,-0.2,#cc79a7,#cc79a7,,A1FZ1803WJWRC5,001,2020-12-12_09h06.44.900,change-localization,2020.1.2,Win32,60,,,0,28,28,28,1,,
,,-0.096972811,-0.195241597,1,0,0,1.10507,probe2,"[-0.1,-0.2]",,,,,,30,probe2,0.05,0.05,0.1,0.2,#f0e442,#f0e442,,-0.1,-0.2,#d55e00,#4A4A4A,,0,-0.2,#cc79a7,#cc79a7,,0.1,-0.2,#0072b2,#0072b2,,-0.2,0,#009e73,#009e73,,A1FZ1803WJWRC5,001,2020-12-12_09h06.44.900,change-localization,2020.1.2,Win32,60,,,0,29,29,29,1,,
,,0.119653732,-0.01934825,1,0,0,1.3356,probe2,"[0.1,0]",,,,,,31,probe5,0.05,0.05,0,-0.2,#d55e00,#d55e00,,0.1,0,#e69f00,#e69f00,,0.1,0.2,#f0e442,#f0e442,,-0.2,-0.1,#cc79a7,#cc79a7,,-0.1,-0.1,#009e73,#4A4A4A,,A1FZ1803WJWRC5,001,2020-12-12_09h06.44.900,change-localization,2020.1.2,Win32,60,,,0,30,30,30,1,,
,,0.202971633,0.189872257,1,0,0,2.1855,probe1,"[0.2,0.2]",,,,,,32,probe3,0.05,0.05,0.2,0.2,#56b4e9,#56b4e9,,-0.1,-0.1,#009e73,#009e73,,0.2,0.1,#cc79a7,#0072b2,,-0.2,0.1,#4A4A4A,#4A4A4A,,-0.2,-0.1,#f0e442,#f0e442,,A1FZ1803WJWRC5,001,2020-12-12_09h06.44.900,change-localization,2020.1.2,Win32,60,,,0,31,31,31,1,,
,,0.126134013,0.134327018,1,0,0,5.552075,probe2,"[0.1,0.1]",,,,,,33,probe3,0.05,0.05,-0.1,-0.1,#0072b2,#0072b2,,0.1,0.1,#cc79a7,#cc79a7,,-0.1,0.1,#f0e442,#009e73,,0,-0.2,#56b4e9,#56b4e9,,0.1,0.2,#e69f00,#e69f00,,A1FZ1803WJWRC5,001,2020-12-12_09h06.44.900,change-localization,2020.1.2,Win32,60,,,0,32,32,32,1,,
,,0.107618924,-0.210979366,1,0,0,5.502145,probe3,"[0.1,-0.2]",,,,,,34,probe5,0.05,0.05,0.2,0.1,#e69f00,#e69f00,,-0.2,0.1,#cc79a7,#cc79a7,,0.1,-0.2,#0072b2,#0072b2,,0.2,-0.2,#d55e00,#d55e00,,-0.2,0,#56b4e9,#009e73,,A1FZ1803WJWRC5,001,2020-12-12_09h06.44.900,change-localization,2020.1.2,Win32,60,,,0,33,33,33,1,,
,,0.178902017,-0.09618587,1,0,0,1.25343,probe2,"[0.2,-0.1]",,,,,,35,probe2,0.05,0.05,0.2,0,#56b4e9,#56b4e9,,0.2,-0.1,#e69f00,#009e73,,0.1,-0.1,#f0e442,#f0e442,,0,0.2,#d55e00,#d55e00,,0.1,0.2,#cc79a7,#cc79a7,,A1FZ1803WJWRC5,001,2020-12-12_09h06.44.900,change-localization,2020.1.2,Win32,60,,,0,34,34,34,1,,
,,-0.18399373,-0.090631343,1,0,0,2.302305,probe3,"[-0.2,-0.1]",,,,,,36,probe3,0.05,0.05,0,0.1,#4A4A4A,#4A4A4A,,0.2,0.1,#009e73,#009e73,,-0.2,-0.1,#f0e442,#56b4e9,,-0.1,-0.1,#e69f00,#e69f00,,0.1,0,#0072b2,#0072b2,,A1FZ1803WJWRC5,001,2020-12-12_09h06.44.900,change-localization,2020.1.2,Win32,60,,,0,35,35,35,1,,
,,0.106693169,0.008424383,1,0,0,2.0353,probe5,"[0.1,0]",,,,,,37,probe5,0.05,0.05,-0.2,0.1,#e69f00,#e69f00,,0.1,0.1,#0072b2,#0072b2,,-0.2,0,#d55e00,#d55e00,,-0.1,0.2,#cc79a7,#cc79a7,,0.1,0,#009e73,#f0e442,,A1FZ1803WJWRC5,001,2020-12-12_09h06.44.900,change-localization,2020.1.2,Win32,60,,,0,36,36,36,1,,
,,0.106693169,0.008424383,1,0,0,0.77066,probe4,"[0.1,0]",,,,,,38,probe4,0.05,0.05,0.2,-0.2,#4A4A4A,#4A4A4A,,0.2,0,#0072b2,#0072b2,,0.1,-0.1,#e69f00,#e69f00,,0.1,0,#d55e00,#cc79a7,,0,-0.1,#009e73,#009e73,,A1FZ1803WJWRC5,001,2020-12-12_09h06.44.900,change-localization,2020.1.2,Win32,60,,,0,37,37,37,1,,
,,0.188159562,0.120440673,1,0,0,1.084015,probe3,"[0.2,0.1]",,,,,,39,probe4,0.05,0.05,0.1,-0.1,#e69f00,#e69f00,,-0.2,-0.1,#cc79a7,#cc79a7,,0.2,0.1,#d55e00,#d55e00,,-0.2,0.2,#56b4e9,#f0e442,,0,-0.1,#0072b2,#0072b2,,A1FZ1803WJWRC5,001,2020-12-12_09h06.44.900,change-localization,2020.1.2,Win32,60,,,0,38,38,38,1,,
,,-0.197880047,0.08248474,1,0,0,1.102865,probe1,"[-0.2,0.1]",,,,,,40,probe1,0.05,0.05,-0.2,0.1,#4A4A4A,#d55e00,,0.2,0.2,#009e73,#009e73,,-0.1,-0.1,#cc79a7,#cc79a7,,0.2,-0.2,#e69f00,#e69f00,,0.1,-0.1,#56b4e9,#56b4e9,,A1FZ1803WJWRC5,001,2020-12-12_09h06.44.900,change-localization,2020.1.2,Win32,60,,,0,39,39,39,1,,
,,-0.071051686,0.0223107,1,0,0,0.988735,probe4,"[-0.1,0]",,,,,,41,probe4,0.05,0.05,0.2,0.1,#009e73,#009e73,,-0.2,-0.1,#0072b2,#0072b2,,-0.2,-0.2,#56b4e9,#56b4e9,,-0.1,0,#f0e442,#cc79a7,,0,-0.2,#d55e00,#d55e00,,A1FZ1803WJWRC5,001,2020-12-12_09h06.44.900,change-localization,2020.1.2,Win32,60,,,0,40,40,40,1,,
,,0.01967225,-0.230420266,1,0,0,2.469405,probe4,"[0,-0.2]",,,,,,42,probe4,0.05,0.05,-0.1,-0.2,#009e73,#009e73,,-0.1,0.1,#cc79a7,#cc79a7,,0.1,0.1,#56b4e9,#56b4e9,,0,-0.2,#e69f00,#d55e00,,-0.1,0,#0072b2,#0072b2,,A1FZ1803WJWRC5,001,2020-12-12_09h06.44.900,change-localization,2020.1.2,Win32,60,,,0,41,41,41,1,,
,,0.189085316,-0.191538579,1,0,0,2.0716,probe4,"[0.2,-0.2]",,,,,,43,probe1,0.05,0.05,0.2,-0.1,#e69f00,#009e73,,0.1,0,#cc79a7,#cc79a7,,-0.2,-0.2,#f0e442,#f0e442,,0.2,-0.2,#56b4e9,#56b4e9,,-0.2,0.1,#4A4A4A,#4A4A4A,,A1FZ1803WJWRC5,001,2020-12-12_09h06.44.900,change-localization,2020.1.2,Win32,60,,,0,42,42,42,1,,
,,-0.114562146,0.186169267,1,0,0,1.23596,probe1,"[-0.1,0.2]",,,,,,44,probe1,0.05,0.05,-0.1,0.2,#56b4e9,#e69f00,,0.2,0.1,#4A4A4A,#4A4A4A,,0.1,0,#cc79a7,#cc79a7,,0.1,0.2,#f0e442,#f0e442,,-0.1,-0.1,#d55e00,#d55e00,,A1FZ1803WJWRC5,001,2020-12-12_09h06.44.900,change-localization,2020.1.2,Win32,60,,,0,43,43,43,1,,
,,-0.083086494,0.076004459,1,0,0,1.152785,probe3,"[-0.1,0.1]",,,,,,45,probe3,0.05,0.05,-0.2,0.2,#0072b2,#0072b2,,-0.2,-0.1,#56b4e9,#56b4e9,,-0.1,0.1,#f0e442,#e69f00,,-0.1,0.2,#d55e00,#d55e00,,0,-0.2,#cc79a7,#cc79a7,,A1FZ1803WJWRC5,001,2020-12-12_09h06.44.900,change-localization,2020.1.2,Win32,60,,,0,44,44,44,1,,
,,0.204823142,-0.005461933,1,0,0,1.485975,probe5,"[0.2,0]",,,,,,46,probe5,0.05,0.05,0.2,0.1,#0072b2,#0072b2,,0.1,0.2,#f0e442,#f0e442,,0.2,-0.2,#009e73,#009e73,,0.2,0.2,#4A4A4A,#4A4A4A,,0.2,0,#cc79a7,#e69f00,,A1FZ1803WJWRC5,001,2020-12-12_09h06.44.900,change-localization,2020.1.2,Win32,60,,,0,45,45,45,1,,
,,-0.014580721,-0.098963134,1,0,0,1.88725,probe1,"[0,-0.1]",,,,,,47,probe3,0.05,0.05,0,-0.1,#009e73,#009e73,,-0.2,0.2,#f0e442,#f0e442,,0.2,0.2,#56b4e9,#cc79a7,,-0.1,0.2,#4A4A4A,#4A4A4A,,-0.1,0.1,#e69f00,#e69f00,,A1FZ1803WJWRC5,001,2020-12-12_09h06.44.900,change-localization,2020.1.2,Win32,60,,,0,46,46,46,1,,
,,-0.184919485,-0.068413236,1,0,0,1.2864,probe4,"[-0.2,-0.1]",,,,,,48,probe4,0.05,0.05,0.2,-0.2,#cc79a7,#cc79a7,,-0.1,0.1,#009e73,#009e73,,0.1,-0.2,#f0e442,#f0e442,,-0.2,-0.1,#d55e00,#0072b2,,-0.1,0,#56b4e9,#56b4e9,,A1FZ1803WJWRC5,001,2020-12-12_09h06.44.900,change-localization,2020.1.2,Win32,60,,,0,47,47,47,1,,
,,-0.194177029,-0.008239197,1,0,0,1.020835,probe2,"[-0.2,0]",,,,,,49,probe2,0.05,0.05,0,-0.2,#e69f00,#e69f00,,-0.2,0,#cc79a7,#0072b2,,-0.1,0.2,#f0e442,#f0e442,,0.1,0.2,#4A4A4A,#4A4A4A,,-0.1,-0.1,#56b4e9,#56b4e9,,A1FZ1803WJWRC5,001,2020-12-12_09h06.44.900,change-localization,2020.1.2,Win32,60,,,0,48,48,48,1,,
,,-0.116413711,-0.001758916,1,0,0,1.121665,probe4,"[-0.1,0]",,,,,,50,probe4,0.05,0.05,0.2,0.1,#0072b2,#0072b2,,0.1,0.1,#cc79a7,#cc79a7,,0.1,-0.2,#56b4e9,#56b4e9,,-0.1,0,#009e73,#e69f00,,0,0.1,#d55e00,#d55e00,,A1FZ1803WJWRC5,001,2020-12-12_09h06.44.900,change-localization,2020.1.2,Win32,60,,,0,49,49,49,1,,
,,,,,,,,,,,,,,,,,,,,,,,,,,,,,,,,,,,,,,,,,,,,A1FZ1803WJWRC5,001,2020-12-12_09h06.44.900,change-localization,2020.1.2,Win32,60,,,,,,,,c,6.78156
