key_resp.keys,key_resp.rt,mouse.x,mouse.y,mouse.leftButton,mouse.midButton,mouse.rightButton,mouse.time,mouse.clicked_name,mouse.clicked_pos,training.thisRepN,training.thisTrialN,training.thisN,training.thisIndex,training.ran,trial,answer,height,width,x1,y1,stim_color1,probe_color1,copy_color1,x2,y2,stim_color2,probe_color2,copy_color2,x3,y3,stim_color3,probe_color3,copy_color3,x4,y4,stim_color4,probe_color4,copy_color4,x5,y5,stim_color5,probe_color5,copy_color5,participant,session,date,expName,psychopyVersion,OS,frameRate,key_resp_2.keys,key_resp_2.rt,trials.thisRepN,trials.thisTrialN,trials.thisN,trials.thisIndex,trials.ran,completion_keys.keys,completion_keys.rt
c,6.581405,0.092447917,0.209635417,1,0,0,5.12518,probe1,"[0.1,0.2]",0,0,0,0,1,1,probe4,0.05,0.05,0.1,0.2,#0072b2,#0072b2,#0072b2,0.1,-0.1,#e69f00,#e69f00,#e69f00,-0.1,-0.2,#cc79a7,#cc79a7,#cc79a7,0.2,-0.1,#4A4A4A,#f0e442,#FFFFFF,0.2,0,#009e73,#009e73,#009e73,A1I27VG9AHPHA7,001,2020-12-11_19h48.24.692,change-localization,2020.1.2,Win32,60,,,,,,,,,
,,0.098958333,0.018229167,1,0,0,4.082885,probe3,"[0.1,0]",0,1,1,1,1,2,probe1,0.05,0.05,0.2,0,#d55e00,#009e73,#FFFFFF,0.2,-0.1,#e69f00,#e69f00,#e69f00,0.1,0,#4A4A4A,#4A4A4A,#4A4A4A,-0.1,0.1,#56b4e9,#56b4e9,#56b4e9,-0.1,0,#cc79a7,#cc79a7,#cc79a7,A1I27VG9AHPHA7,001,2020-12-11_19h48.24.692,change-localization,2020.1.2,Win32,60,,,,,,,,,
,,-0.098958333,-0.102864583,1,0,0,2.005524999,probe4,"[-0.1,-0.1]",0,2,2,2,1,3,probe1,0.05,0.05,-0.2,-0.2,#f0e442,#009e73,#FFFFFF,0.2,-0.1,#d55e00,#d55e00,#d55e00,-0.2,0,#4A4A4A,#4A4A4A,#4A4A4A,-0.1,-0.1,#0072b2,#0072b2,#0072b2,0,-0.1,#56b4e9,#56b4e9,#56b4e9,A1I27VG9AHPHA7,001,2020-12-11_19h48.24.692,change-localization,2020.1.2,Win32,60,,,,,,,,,
,,0.209635417,0.197916667,1,0,0,3.853545,probe1,"[0.2,0.2]",0,3,3,3,1,4,probe1,0.05,0.05,0.2,0.2,#d55e00,#56b4e9,#FFFFFF,-0.2,0.2,#f0e442,#f0e442,#f0e442,0.2,-0.2,#0072b2,#0072b2,#0072b2,-0.2,0,#cc79a7,#cc79a7,#cc79a7,-0.2,0.1,#4A4A4A,#4A4A4A,#4A4A4A,A1I27VG9AHPHA7,001,2020-12-11_19h48.24.692,change-localization,2020.1.2,Win32,60,,,,,,,,,
,,0.19921875,0.0078125,1,0,0,3.945415,probe5,"[0.2,0]",0,4,4,4,1,5,probe3,0.05,0.05,-0.2,0.1,#56b4e9,#56b4e9,#56b4e9,0,0.2,#009e73,#009e73,#009e73,0,0.1,#0072b2,#cc79a7,#FFFFFF,-0.1,-0.1,#4A4A4A,#4A4A4A,#4A4A4A,0.2,0,#f0e442,#f0e442,#f0e442,A1I27VG9AHPHA7,001,2020-12-11_19h48.24.692,change-localization,2020.1.2,Win32,60,,,,,,,,,
,,-0.114583333,0.098958333,1,0,0,1.75748,probe1,"[-0.1,0.1]",0,5,5,5,1,6,probe5,0.05,0.05,-0.1,0.1,#f0e442,#f0e442,#f0e442,0,0.1,#009e73,#009e73,#009e73,-0.2,0,#4A4A4A,#4A4A4A,#4A4A4A,0,-0.2,#d55e00,#d55e00,#d55e00,0.1,0,#cc79a7,#0072b2,#FFFFFF,A1I27VG9AHPHA7,001,2020-12-11_19h48.24.692,change-localization,2020.1.2,Win32,60,,,,,,,,,
,,0.096354167,0.204427083,1,0,0,1.674885,probe2,"[0.1,0.2]",0,6,6,6,1,7,probe2,0.05,0.05,-0.2,-0.2,#4A4A4A,#4A4A4A,#4A4A4A,0.1,0.2,#0072b2,#d55e00,#FFFFFF,-0.1,-0.2,#f0e442,#f0e442,#f0e442,-0.2,0.2,#009e73,#009e73,#009e73,0.2,0.2,#e69f00,#e69f00,#e69f00,A1I27VG9AHPHA7,001,2020-12-11_19h48.24.692,change-localization,2020.1.2,Win32,60,,,,,,,,,
,,-0.10546875,0.0078125,1,0,0,1.328275,probe2,"[-0.1,0]",0,7,7,7,1,8,probe1,0.05,0.05,0.1,-0.2,#009e73,#f0e442,#FFFFFF,-0.1,0,#d55e00,#d55e00,#d55e00,-0.1,0.1,#4A4A4A,#4A4A4A,#4A4A4A,-0.2,0,#cc79a7,#cc79a7,#cc79a7,0.2,0,#e69f00,#e69f00,#e69f00,A1I27VG9AHPHA7,001,2020-12-11_19h48.24.692,change-localization,2020.1.2,Win32,60,,,,,,,,,
,,0.106770833,-0.200520833,1,0,0,3.199335,probe1,"[0.1,-0.2]",0,8,8,8,1,9,probe1,0.05,0.05,0.1,-0.2,#0072b2,#e69f00,#FFFFFF,-0.1,0.2,#f0e442,#f0e442,#f0e442,-0.2,0.1,#d55e00,#d55e00,#d55e00,0.2,0.2,#cc79a7,#cc79a7,#cc79a7,0.1,0.1,#56b4e9,#56b4e9,#56b4e9,A1I27VG9AHPHA7,001,2020-12-11_19h48.24.692,change-localization,2020.1.2,Win32,60,,,,,,,,,
,,0.095052083,-0.19921875,1,0,0,2.22458,probe4,"[0.1,-0.2]",0,9,9,9,1,10,probe1,0.05,0.05,-0.1,-0.1,#4A4A4A,#f0e442,#FFFFFF,0,0.2,#cc79a7,#cc79a7,#cc79a7,0.2,-0.2,#e69f00,#e69f00,#e69f00,0.1,-0.2,#009e73,#009e73,#009e73,0.1,0.1,#d55e00,#d55e00,#d55e00,A1I27VG9AHPHA7,001,2020-12-11_19h48.24.692,change-localization,2020.1.2,Win32,60,,,,,,,,,
,,-0.109375,-0.009114583,1,0,0,2.124215,probe3,"[-0.1,0]",,,,,,1,probe2,0.05,0.05,-0.2,0.2,#009e73,#009e73,,-0.1,0.2,#f0e442,#e69f00,,-0.1,0,#0072b2,#0072b2,,0,-0.2,#cc79a7,#cc79a7,,0,0.2,#d55e00,#d55e00,,A1I27VG9AHPHA7,001,2020-12-11_19h48.24.692,change-localization,2020.1.2,Win32,60,c,9.631625,0,0,0,0,1,,
,,0.006510417,0.1015625,1,0,0,8.447579999,probe1,"[0,0.1]",,,,,,2,probe5,0.05,0.05,0,0.1,#009e73,#009e73,,0.2,0.1,#4A4A4A,#4A4A4A,,-0.1,-0.1,#cc79a7,#cc79a7,,0.1,0.1,#d55e00,#d55e00,,0,-0.1,#56b4e9,#e69f00,,A1I27VG9AHPHA7,001,2020-12-11_19h48.24.692,change-localization,2020.1.2,Win32,60,,,0,1,1,1,1,,
,,0.174479167,0.005208333,1,0,0,2.2814,probe2,"[0.2,0]",,,,,,3,probe4,0.05,0.05,0.1,-0.1,#56b4e9,#56b4e9,,0.2,0,#f0e442,#f0e442,,0.2,-0.1,#e69f00,#e69f00,,-0.1,0.1,#4A4A4A,#009e73,,-0.1,0.2,#d55e00,#d55e00,,A1I27VG9AHPHA7,001,2020-12-11_19h48.24.692,change-localization,2020.1.2,Win32,60,,,0,2,2,2,1,,
,,0,0.203125,1,0,0,2.57153,probe3,"[0,0.2]",,,,,,4,probe5,0.05,0.05,0.2,0,#56b4e9,#56b4e9,,-0.2,-0.2,#cc79a7,#cc79a7,,0,0.2,#4A4A4A,#4A4A4A,,0.2,-0.2,#e69f00,#e69f00,,-0.2,0,#f0e442,#009e73,,A1I27VG9AHPHA7,001,2020-12-11_19h48.24.692,change-localization,2020.1.2,Win32,60,,,0,3,3,3,1,,
,,0.08984375,0.106770833,1,0,0,1.416025,probe5,"[0.1,0.1]",,,,,,5,probe3,0.05,0.05,-0.2,0.1,#4A4A4A,#4A4A4A,,0.2,0.2,#009e73,#009e73,,-0.1,-0.1,#0072b2,#f0e442,,0.2,0,#cc79a7,#cc79a7,,0.1,0.1,#e69f00,#e69f00,,A1I27VG9AHPHA7,001,2020-12-11_19h48.24.692,change-localization,2020.1.2,Win32,60,,,0,4,4,4,1,,
,,-0.188802083,0.19140625,1,0,0,4.227825,probe2,"[-0.2,0.2]",,,,,,6,probe4,0.05,0.05,-0.1,0.1,#d55e00,#d55e00,,-0.2,0.2,#0072b2,#0072b2,,0,-0.1,#e69f00,#e69f00,,0,0.2,#56b4e9,#4A4A4A,,-0.2,-0.2,#009e73,#009e73,,A1I27VG9AHPHA7,001,2020-12-11_19h48.24.692,change-localization,2020.1.2,Win32,60,,,0,5,5,5,1,,
,,0.205729167,-0.115885417,1,0,0,1.502665,probe1,"[0.2,-0.1]",,,,,,7,probe4,0.05,0.05,0.2,-0.1,#56b4e9,#56b4e9,,-0.1,-0.1,#e69f00,#e69f00,,-0.2,0.2,#009e73,#009e73,,0.2,0.2,#cc79a7,#4A4A4A,,0.2,-0.2,#d55e00,#d55e00,,A1I27VG9AHPHA7,001,2020-12-11_19h48.24.692,change-localization,2020.1.2,Win32,60,,,0,6,6,6,1,,
,,0.200520833,0.100260417,1,0,0,1.35465,probe3,"[0.2,0.1]",,,,,,8,probe4,0.05,0.05,-0.2,0.1,#e69f00,#e69f00,,0.1,0.2,#cc79a7,#cc79a7,,0.2,0.1,#4A4A4A,#4A4A4A,,-0.2,0.2,#56b4e9,#d55e00,,0.2,-0.1,#0072b2,#0072b2,,A1I27VG9AHPHA7,001,2020-12-11_19h48.24.692,change-localization,2020.1.2,Win32,60,,,0,7,7,7,1,,
,,0.08203125,0.104166667,1,0,0,1.046320001,probe2,"[0.1,0.1]",,,,,,9,probe5,0.05,0.05,-0.1,0,#4A4A4A,#4A4A4A,,0.1,0.1,#56b4e9,#56b4e9,,-0.2,0.1,#009e73,#009e73,,0.2,0.1,#cc79a7,#cc79a7,,0.2,0.2,#d55e00,#f0e442,,A1I27VG9AHPHA7,001,2020-12-11_19h48.24.692,change-localization,2020.1.2,Win32,60,,,0,8,8,8,1,,
,,-0.009114583,0.100260417,1,0,0,2.432969999,probe3,"[0,0.1]",,,,,,10,probe3,0.05,0.05,0.2,0.2,#f0e442,#f0e442,,0.1,-0.1,#e69f00,#e69f00,,0,0.1,#cc79a7,#4A4A4A,,-0.2,0.1,#56b4e9,#56b4e9,,0.2,0,#0072b2,#0072b2,,A1I27VG9AHPHA7,001,2020-12-11_19h48.24.692,change-localization,2020.1.2,Win32,60,,,0,9,9,9,1,,
,,0.18359375,0.197916667,1,0,0,1.590175,probe1,"[0.2,0.2]",,,,,,11,probe5,0.05,0.05,0.2,0.2,#4A4A4A,#4A4A4A,,0.1,0.2,#0072b2,#0072b2,,0.1,-0.1,#cc79a7,#cc79a7,,0,-0.2,#009e73,#009e73,,0.1,-0.2,#f0e442,#d55e00,,A1I27VG9AHPHA7,001,2020-12-11_19h48.24.692,change-localization,2020.1.2,Win32,60,,,0,10,10,10,1,,
,,-0.104166667,-0.190104167,1,0,0,1.08945,probe3,"[-0.1,-0.2]",,,,,,12,probe4,0.05,0.05,-0.1,-0.1,#009e73,#009e73,,-0.1,0,#56b4e9,#56b4e9,,-0.1,-0.2,#0072b2,#0072b2,,0.1,0,#d55e00,#f0e442,,0,-0.1,#cc79a7,#cc79a7,,A1I27VG9AHPHA7,001,2020-12-11_19h48.24.692,change-localization,2020.1.2,Win32,60,,,0,11,11,11,1,,
,,0.098958333,0.115885417,1,0,0,1.184014999,probe3,"[0.1,0.1]",,,,,,13,probe4,0.05,0.05,0,-0.1,#f0e442,#f0e442,,0.1,-0.1,#d55e00,#d55e00,,0.1,0.1,#0072b2,#0072b2,,-0.2,0.2,#cc79a7,#4A4A4A,,0.1,0.2,#009e73,#009e73,,A1I27VG9AHPHA7,001,2020-12-11_19h48.24.692,change-localization,2020.1.2,Win32,60,,,0,12,12,12,1,,
,,0.0078125,-0.104166667,1,0,0,1.339825,probe2,"[0,-0.1]",,,,,,14,probe5,0.05,0.05,0,0.2,#cc79a7,#cc79a7,,0,-0.1,#4A4A4A,#4A4A4A,,-0.2,0,#56b4e9,#56b4e9,,0.1,0.1,#0072b2,#0072b2,,0.1,0.2,#009e73,#e69f00,,A1I27VG9AHPHA7,001,2020-12-11_19h48.24.692,change-localization,2020.1.2,Win32,60,,,0,13,13,13,1,,
,,0.201822917,0.102864583,1,0,0,2.958715,probe3,"[0.2,0.1]",,,,,,15,probe3,0.05,0.05,0.2,0.2,#cc79a7,#cc79a7,,0,0.2,#56b4e9,#56b4e9,,0.2,0.1,#d55e00,#4A4A4A,,0.1,-0.1,#f0e442,#f0e442,,0.2,-0.1,#0072b2,#0072b2,,A1I27VG9AHPHA7,001,2020-12-11_19h48.24.692,change-localization,2020.1.2,Win32,60,,,0,14,14,14,1,,
,,0.108072917,0.1015625,1,0,0,1.339985,probe3,"[0.1,0.1]",,,,,,16,probe3,0.05,0.05,-0.2,-0.1,#f0e442,#f0e442,,-0.2,0.2,#d55e00,#d55e00,,0.1,0.1,#009e73,#4A4A4A,,-0.2,0.1,#56b4e9,#56b4e9,,0,-0.1,#cc79a7,#cc79a7,,A1I27VG9AHPHA7,001,2020-12-11_19h48.24.692,change-localization,2020.1.2,Win32,60,,,0,15,15,15,1,,
,,0.184895833,-0.0859375,1,0,0,3.596524999,probe1,"[0.2,-0.1]",,,,,,17,probe3,0.05,0.05,0.2,-0.1,#cc79a7,#cc79a7,,0,-0.2,#0072b2,#0072b2,,0,0.1,#4A4A4A,#e69f00,,-0.2,-0.1,#f0e442,#f0e442,,-0.1,-0.1,#009e73,#009e73,,A1I27VG9AHPHA7,001,2020-12-11_19h48.24.692,change-localization,2020.1.2,Win32,60,,,0,16,16,16,1,,
,,-0.08984375,0.088541667,1,0,0,1.149235,probe1,"[-0.1,0.1]",,,,,,18,probe3,0.05,0.05,-0.1,0.1,#d55e00,#d55e00,,-0.1,0.2,#e69f00,#e69f00,,0.2,0,#009e73,#0072b2,,0.1,-0.1,#cc79a7,#cc79a7,,-0.2,0.2,#4A4A4A,#4A4A4A,,A1I27VG9AHPHA7,001,2020-12-11_19h48.24.692,change-localization,2020.1.2,Win32,60,,,0,17,17,17,1,,
,,-0.104166667,0.100260417,1,0,0,1.00286,probe3,"[-0.1,0.1]",,,,,,19,probe3,0.05,0.05,-0.1,0.2,#0072b2,#0072b2,,0,-0.1,#4A4A4A,#4A4A4A,,-0.1,0.1,#e69f00,#009e73,,0.2,0.1,#d55e00,#d55e00,,-0.2,0.1,#cc79a7,#cc79a7,,A1I27VG9AHPHA7,001,2020-12-11_19h48.24.692,change-localization,2020.1.2,Win32,60,,,0,18,18,18,1,,
,,-0.109375,0.006510417,1,0,0,1.419105,probe5,"[-0.1,0]",,,,,,20,probe4,0.05,0.05,0.2,0,#56b4e9,#56b4e9,,-0.1,0.2,#009e73,#009e73,,-0.2,-0.2,#e69f00,#e69f00,,0,-0.1,#f0e442,#cc79a7,,-0.1,0,#4A4A4A,#4A4A4A,,A1I27VG9AHPHA7,001,2020-12-11_19h48.24.692,change-localization,2020.1.2,Win32,60,,,0,19,19,19,1,,
,,-0.115885417,0.09375,1,0,0,1.467785,probe1,"[-0.1,0.1]",,,,,,21,probe3,0.05,0.05,-0.1,0.1,#0072b2,#0072b2,,-0.1,0.2,#009e73,#009e73,,0.2,0,#56b4e9,#4A4A4A,,-0.2,0.2,#f0e442,#f0e442,,0.2,0.1,#d55e00,#d55e00,,A1I27VG9AHPHA7,001,2020-12-11_19h48.24.692,change-localization,2020.1.2,Win32,60,,,0,20,20,20,1,,
,,0.088541667,-0.201822917,1,0,0,2.127104999,probe3,"[0.1,-0.2]",,,,,,22,probe4,0.05,0.05,0.2,-0.1,#d55e00,#d55e00,,0.2,0,#56b4e9,#56b4e9,,0.1,-0.2,#cc79a7,#cc79a7,,-0.2,-0.1,#4A4A4A,#009e73,,0,-0.2,#e69f00,#e69f00,,A1I27VG9AHPHA7,001,2020-12-11_19h48.24.692,change-localization,2020.1.2,Win32,60,,,0,21,21,21,1,,
,,0.220052083,-0.001302083,1,0,0,2.68456,probe3,"[0.2,0]",,,,,,23,probe4,0.05,0.05,0.1,0.1,#56b4e9,#56b4e9,,-0.2,-0.1,#0072b2,#0072b2,,0.2,0,#d55e00,#d55e00,,-0.2,-0.2,#cc79a7,#009e73,,0.1,-0.2,#4A4A4A,#4A4A4A,,A1I27VG9AHPHA7,001,2020-12-11_19h48.24.692,change-localization,2020.1.2,Win32,60,,,0,22,22,22,1,,
,,0.110677083,0.1015625,1,0,0,1.508495,probe4,"[0.1,0.1]",,,,,,24,probe2,0.05,0.05,-0.1,-0.2,#4A4A4A,#4A4A4A,,0.2,0.2,#d55e00,#e69f00,,0.1,-0.1,#f0e442,#f0e442,,0.1,0.1,#56b4e9,#56b4e9,,-0.2,0.1,#cc79a7,#cc79a7,,A1I27VG9AHPHA7,001,2020-12-11_19h48.24.692,change-localization,2020.1.2,Win32,60,,,0,23,23,23,1,,
,,-0.095052083,-0.095052083,1,0,0,1.50511,probe2,"[-0.1,-0.1]",,,,,,25,probe3,0.05,0.05,-0.2,-0.2,#f0e442,#f0e442,,-0.1,-0.1,#4A4A4A,#4A4A4A,,0.2,0,#d55e00,#cc79a7,,0,0.2,#0072b2,#0072b2,,-0.2,0.1,#009e73,#009e73,,A1I27VG9AHPHA7,001,2020-12-11_19h48.24.692,change-localization,2020.1.2,Win32,60,,,0,24,24,24,1,,
,,-0.114583333,-0.178385417,1,0,0,0.992645,probe3,"[-0.1,-0.2]",,,,,,26,probe3,0.05,0.05,0.1,-0.1,#e69f00,#e69f00,,-0.2,0,#56b4e9,#56b4e9,,-0.1,-0.2,#009e73,#d55e00,,-0.2,-0.1,#4A4A4A,#4A4A4A,,0.1,0,#cc79a7,#cc79a7,,A1I27VG9AHPHA7,001,2020-12-11_19h48.24.692,change-localization,2020.1.2,Win32,60,,,0,25,25,25,1,,
,,0.080729167,0.104166667,1,0,0,0.860875,probe4,"[0.1,0.1]",,,,,,27,probe5,0.05,0.05,-0.1,-0.2,#009e73,#009e73,,0.2,0,#cc79a7,#cc79a7,,-0.1,-0.1,#e69f00,#e69f00,,0.1,0.1,#d55e00,#d55e00,,-0.2,-0.1,#4A4A4A,#0072b2,,A1I27VG9AHPHA7,001,2020-12-11_19h48.24.692,change-localization,2020.1.2,Win32,60,,,0,26,26,26,1,,
,,-0.0234375,-0.217447917,1,0,0,1.356,probe3,"[0,-0.2]",,,,,,28,probe5,0.05,0.05,-0.1,0.2,#009e73,#009e73,,-0.2,0.1,#56b4e9,#56b4e9,,0,-0.2,#d55e00,#d55e00,,0.1,0,#0072b2,#0072b2,,0.1,0.1,#f0e442,#e69f00,,A1I27VG9AHPHA7,001,2020-12-11_19h48.24.692,change-localization,2020.1.2,Win32,60,,,0,27,27,27,1,,
,,0.096354167,-0.1015625,1,0,0,1.30668,probe1,"[0.1,-0.1]",,,,,,29,probe1,0.05,0.05,0.1,-0.1,#4A4A4A,#56b4e9,,-0.2,0.2,#e69f00,#e69f00,,-0.1,-0.1,#f0e442,#f0e442,,0.1,0.2,#0072b2,#0072b2,,-0.1,-0.2,#cc79a7,#cc79a7,,A1I27VG9AHPHA7,001,2020-12-11_19h48.24.692,change-localization,2020.1.2,Win32,60,,,0,28,28,28,1,,
,,-0.21875,0.005208333,1,0,0,8.979915,probe5,"[-0.2,0]",,,,,,30,probe2,0.05,0.05,0.1,0.2,#f0e442,#f0e442,,-0.1,-0.2,#d55e00,#4A4A4A,,0,-0.2,#cc79a7,#cc79a7,,0.1,-0.2,#0072b2,#0072b2,,-0.2,0,#009e73,#009e73,,A1I27VG9AHPHA7,001,2020-12-11_19h48.24.692,change-localization,2020.1.2,Win32,60,,,0,29,29,29,1,,
,,0.013020833,-0.204427083,1,0,0,4.019894999,probe1,"[0,-0.2]",,,,,,31,probe5,0.05,0.05,0,-0.2,#d55e00,#d55e00,,0.1,0,#e69f00,#e69f00,,0.1,0.2,#f0e442,#f0e442,,-0.2,-0.1,#cc79a7,#cc79a7,,-0.1,-0.1,#009e73,#4A4A4A,,A1I27VG9AHPHA7,001,2020-12-11_19h48.24.692,change-localization,2020.1.2,Win32,60,,,0,30,30,30,1,,
,,0.205729167,0.109375,1,0,0,14.21851,probe3,"[0.2,0.1]",,,,,,32,probe3,0.05,0.05,0.2,0.2,#56b4e9,#56b4e9,,-0.1,-0.1,#009e73,#009e73,,0.2,0.1,#cc79a7,#0072b2,,-0.2,0.1,#4A4A4A,#4A4A4A,,-0.2,-0.1,#f0e442,#f0e442,,A1I27VG9AHPHA7,001,2020-12-11_19h48.24.692,change-localization,2020.1.2,Win32,60,,,0,31,31,31,1,,
,,-0.1953125,0.098958333,1,0,0,0.23696,probe3,"[-0.1,0.1]",,,,,,33,probe3,0.05,0.05,-0.1,-0.1,#0072b2,#0072b2,,0.1,0.1,#cc79a7,#cc79a7,,-0.1,0.1,#f0e442,#009e73,,0,-0.2,#56b4e9,#56b4e9,,0.1,0.2,#e69f00,#e69f00,,A1I27VG9AHPHA7,001,2020-12-11_19h48.24.692,change-localization,2020.1.2,Win32,60,,,0,32,32,32,1,,
,,0.123697917,-0.208333333,1,0,0,19.400375,probe3,"[0.1,-0.2]",,,,,,34,probe5,0.05,0.05,0.2,0.1,#e69f00,#e69f00,,-0.2,0.1,#cc79a7,#cc79a7,,0.1,-0.2,#0072b2,#0072b2,,0.2,-0.2,#d55e00,#d55e00,,-0.2,0,#56b4e9,#009e73,,A1I27VG9AHPHA7,001,2020-12-11_19h48.24.692,change-localization,2020.1.2,Win32,60,,,0,33,33,33,1,,
,,0.0859375,-0.09375,1,0,0,1.84791,probe3,"[0.1,-0.1]",,,,,,35,probe2,0.05,0.05,0.2,0,#56b4e9,#56b4e9,,0.2,-0.1,#e69f00,#009e73,,0.1,-0.1,#f0e442,#f0e442,,0,0.2,#d55e00,#d55e00,,0.1,0.2,#cc79a7,#cc79a7,,A1I27VG9AHPHA7,001,2020-12-11_19h48.24.692,change-localization,2020.1.2,Win32,60,,,0,34,34,34,1,,
,,0.005208333,0.104166667,1,0,0,2.820990001,probe1,"[0,0.1]",,,,,,36,probe3,0.05,0.05,0,0.1,#4A4A4A,#4A4A4A,,0.2,0.1,#009e73,#009e73,,-0.2,-0.1,#f0e442,#56b4e9,,-0.1,-0.1,#e69f00,#e69f00,,0.1,0,#0072b2,#0072b2,,A1I27VG9AHPHA7,001,2020-12-11_19h48.24.692,change-localization,2020.1.2,Win32,60,,,0,35,35,35,1,,
,,-0.1953125,0,1,0,0,1.472535,probe3,"[-0.2,0]",,,,,,37,probe5,0.05,0.05,-0.2,0.1,#e69f00,#e69f00,,0.1,0.1,#0072b2,#0072b2,,-0.2,0,#d55e00,#d55e00,,-0.1,0.2,#cc79a7,#cc79a7,,0.1,0,#009e73,#f0e442,,A1I27VG9AHPHA7,001,2020-12-11_19h48.24.692,change-localization,2020.1.2,Win32,60,,,0,36,36,36,1,,
,,0.109375,-0.001302083,1,0,0,1.581189999,probe4,"[0.1,0]",,,,,,38,probe4,0.05,0.05,0.2,-0.2,#4A4A4A,#4A4A4A,,0.2,0,#0072b2,#0072b2,,0.1,-0.1,#e69f00,#e69f00,,0.1,0,#d55e00,#cc79a7,,0,-0.1,#009e73,#009e73,,A1I27VG9AHPHA7,001,2020-12-11_19h48.24.692,change-localization,2020.1.2,Win32,60,,,0,37,37,37,1,,
,,0.001302083,-0.09765625,1,0,0,2.509115,probe5,"[0,-0.1]",,,,,,39,probe4,0.05,0.05,0.1,-0.1,#e69f00,#e69f00,,-0.2,-0.1,#cc79a7,#cc79a7,,0.2,0.1,#d55e00,#d55e00,,-0.2,0.2,#56b4e9,#f0e442,,0,-0.1,#0072b2,#0072b2,,A1I27VG9AHPHA7,001,2020-12-11_19h48.24.692,change-localization,2020.1.2,Win32,60,,,0,38,38,38,1,,
,,-0.095052083,-0.10546875,1,0,0,1.81275,probe3,"[-0.1,-0.1]",,,,,,40,probe1,0.05,0.05,-0.2,0.1,#4A4A4A,#d55e00,,0.2,0.2,#009e73,#009e73,,-0.1,-0.1,#cc79a7,#cc79a7,,0.2,-0.2,#e69f00,#e69f00,,0.1,-0.1,#56b4e9,#56b4e9,,A1I27VG9AHPHA7,001,2020-12-11_19h48.24.692,change-localization,2020.1.2,Win32,60,,,0,39,39,39,1,,
,,-0.208333333,-0.08984375,1,0,0,1.14087,probe2,"[-0.2,-0.1]",,,,,,41,probe4,0.05,0.05,0.2,0.1,#009e73,#009e73,,-0.2,-0.1,#0072b2,#0072b2,,-0.2,-0.2,#56b4e9,#56b4e9,,-0.1,0,#f0e442,#cc79a7,,0,-0.2,#d55e00,#d55e00,,A1I27VG9AHPHA7,001,2020-12-11_19h48.24.692,change-localization,2020.1.2,Win32,60,,,0,40,40,40,1,,
,,0.0078125,-0.213541667,1,0,0,0.930805,probe4,"[0,-0.2]",,,,,,42,probe4,0.05,0.05,-0.1,-0.2,#009e73,#009e73,,-0.1,0.1,#cc79a7,#cc79a7,,0.1,0.1,#56b4e9,#56b4e9,,0,-0.2,#e69f00,#d55e00,,-0.1,0,#0072b2,#0072b2,,A1I27VG9AHPHA7,001,2020-12-11_19h48.24.692,change-localization,2020.1.2,Win32,60,,,0,41,41,41,1,,
,,-0.213541667,0.08984375,1,0,0,1.23627,probe5,"[-0.2,0.1]",,,,,,43,probe1,0.05,0.05,0.2,-0.1,#e69f00,#009e73,,0.1,0,#cc79a7,#cc79a7,,-0.2,-0.2,#f0e442,#f0e442,,0.2,-0.2,#56b4e9,#56b4e9,,-0.2,0.1,#4A4A4A,#4A4A4A,,A1I27VG9AHPHA7,001,2020-12-11_19h48.24.692,change-localization,2020.1.2,Win32,60,,,0,42,42,42,1,,
,,0.194010417,0.111979167,1,0,0,2.64459,probe2,"[0.2,0.1]",,,,,,44,probe1,0.05,0.05,-0.1,0.2,#56b4e9,#e69f00,,0.2,0.1,#4A4A4A,#4A4A4A,,0.1,0,#cc79a7,#cc79a7,,0.1,0.2,#f0e442,#f0e442,,-0.1,-0.1,#d55e00,#d55e00,,A1I27VG9AHPHA7,001,2020-12-11_19h48.24.692,change-localization,2020.1.2,Win32,60,,,0,43,43,43,1,,
,,-0.1015625,0.204427083,1,0,0,1.911830001,probe4,"[-0.1,0.2]",,,,,,45,probe3,0.05,0.05,-0.2,0.2,#0072b2,#0072b2,,-0.2,-0.1,#56b4e9,#56b4e9,,-0.1,0.1,#f0e442,#e69f00,,-0.1,0.2,#d55e00,#d55e00,,0,-0.2,#cc79a7,#cc79a7,,A1I27VG9AHPHA7,001,2020-12-11_19h48.24.692,change-localization,2020.1.2,Win32,60,,,0,44,44,44,1,,
,,0.196614583,0.201822917,1,0,0,1.30973,probe4,"[0.2,0.2]",,,,,,46,probe5,0.05,0.05,0.2,0.1,#0072b2,#0072b2,,0.1,0.2,#f0e442,#f0e442,,0.2,-0.2,#009e73,#009e73,,0.2,0.2,#4A4A4A,#4A4A4A,,0.2,0,#cc79a7,#e69f00,,A1I27VG9AHPHA7,001,2020-12-11_19h48.24.692,change-localization,2020.1.2,Win32,60,,,0,45,45,45,1,,
,,-0.106770833,0.19140625,1,0,0,1.46004,probe4,"[-0.1,0.2]",,,,,,47,probe3,0.05,0.05,0,-0.1,#009e73,#009e73,,-0.2,0.2,#f0e442,#f0e442,,0.2,0.2,#56b4e9,#cc79a7,,-0.1,0.2,#4A4A4A,#4A4A4A,,-0.1,0.1,#e69f00,#e69f00,,A1I27VG9AHPHA7,001,2020-12-11_19h48.24.692,change-localization,2020.1.2,Win32,60,,,0,46,46,46,1,,
,,0.09765625,-0.200520833,1,0,0,1.249205,probe3,"[0.1,-0.2]",,,,,,48,probe4,0.05,0.05,0.2,-0.2,#cc79a7,#cc79a7,,-0.1,0.1,#009e73,#009e73,,0.1,-0.2,#f0e442,#f0e442,,-0.2,-0.1,#d55e00,#0072b2,,-0.1,0,#56b4e9,#56b4e9,,A1I27VG9AHPHA7,001,2020-12-11_19h48.24.692,change-localization,2020.1.2,Win32,60,,,0,47,47,47,1,,
,,0.009114583,-0.192708333,1,0,0,2.410809999,probe1,"[0,-0.2]",,,,,,49,probe2,0.05,0.05,0,-0.2,#e69f00,#e69f00,,-0.2,0,#cc79a7,#0072b2,,-0.1,0.2,#f0e442,#f0e442,,0.1,0.2,#4A4A4A,#4A4A4A,,-0.1,-0.1,#56b4e9,#56b4e9,,A1I27VG9AHPHA7,001,2020-12-11_19h48.24.692,change-localization,2020.1.2,Win32,60,,,0,48,48,48,1,,
,,0.00390625,0.09765625,1,0,0,1.496015,probe5,"[0,0.1]",,,,,,50,probe4,0.05,0.05,0.2,0.1,#0072b2,#0072b2,,0.1,0.1,#cc79a7,#cc79a7,,0.1,-0.2,#56b4e9,#56b4e9,,-0.1,0,#009e73,#e69f00,,0,0.1,#d55e00,#d55e00,,A1I27VG9AHPHA7,001,2020-12-11_19h48.24.692,change-localization,2020.1.2,Win32,60,,,0,49,49,49,1,,
,,,,,,,,,,,,,,,,,,,,,,,,,,,,,,,,,,,,,,,,,,,,A1I27VG9AHPHA7,001,2020-12-11_19h48.24.692,change-localization,2020.1.2,Win32,60,,,,,,,,c,11.450165
