key_resp.keys,key_resp.rt,mouse.x,mouse.y,mouse.leftButton,mouse.midButton,mouse.rightButton,mouse.time,mouse.clicked_name,mouse.clicked_pos,training.thisRepN,training.thisTrialN,training.thisN,training.thisIndex,training.ran,trial,answer,height,width,x1,y1,stim_color1,probe_color1,copy_color1,x2,y2,stim_color2,probe_color2,copy_color2,x3,y3,stim_color3,probe_color3,copy_color3,x4,y4,stim_color4,probe_color4,copy_color4,x5,y5,stim_color5,probe_color5,copy_color5,participant,session,date,expName,psychopyVersion,OS,frameRate,key_resp_2.keys,key_resp_2.rt,trials.thisRepN,trials.thisTrialN,trials.thisN,trials.thisIndex,trials.ran,completion_keys.keys,completion_keys.rt
c,11.77332,-0.108333333,-0.201851852,1,0,0,2.069255,probe3,"[-0.1,-0.2]",0,0,0,0,1,1,probe4,0.05,0.05,0.1,0.2,#0072b2,#0072b2,#0072b2,0.1,-0.1,#e69f00,#e69f00,#e69f00,-0.1,-0.2,#cc79a7,#cc79a7,#cc79a7,0.2,-0.1,#4A4A4A,#f0e442,#FFFFFF,0.2,0,#009e73,#009e73,#009e73,A1KMEBRRTN67LP,001,2020-12-11_20h51.18.589,change-localization,2020.1.2,Win32,60,,,,,,,,,
,,0.102777778,0.001851852,1,0,0,1.950285,probe3,"[0.1,0]",0,1,1,1,1,2,probe1,0.05,0.05,0.2,0,#d55e00,#009e73,#FFFFFF,0.2,-0.1,#e69f00,#e69f00,#e69f00,0.1,0,#4A4A4A,#4A4A4A,#4A4A4A,-0.1,0.1,#56b4e9,#56b4e9,#56b4e9,-0.1,0,#cc79a7,#cc79a7,#cc79a7,A1KMEBRRTN67LP,001,2020-12-11_20h51.18.589,change-localization,2020.1.2,Win32,60,,,,,,,,,
,,-0.20462963,-0.205555556,1,0,0,1.243125,probe1,"[-0.2,-0.2]",0,2,2,2,1,3,probe1,0.05,0.05,-0.2,-0.2,#f0e442,#009e73,#FFFFFF,0.2,-0.1,#d55e00,#d55e00,#d55e00,-0.2,0,#4A4A4A,#4A4A4A,#4A4A4A,-0.1,-0.1,#0072b2,#0072b2,#0072b2,0,-0.1,#56b4e9,#56b4e9,#56b4e9,A1KMEBRRTN67LP,001,2020-12-11_20h51.18.589,change-localization,2020.1.2,Win32,60,,,,,,,,,
,,0.214814815,-0.189814815,1,0,0,1.13844,probe3,"[0.2,-0.2]",0,3,3,3,1,4,probe1,0.05,0.05,0.2,0.2,#d55e00,#56b4e9,#FFFFFF,-0.2,0.2,#f0e442,#f0e442,#f0e442,0.2,-0.2,#0072b2,#0072b2,#0072b2,-0.2,0,#cc79a7,#cc79a7,#cc79a7,-0.2,0.1,#4A4A4A,#4A4A4A,#4A4A4A,A1KMEBRRTN67LP,001,2020-12-11_20h51.18.589,change-localization,2020.1.2,Win32,60,,,,,,,,,
,,-0.008333333,0.205555556,1,0,0,1.750005,probe2,"[0,0.2]",0,4,4,4,1,5,probe3,0.05,0.05,-0.2,0.1,#56b4e9,#56b4e9,#56b4e9,0,0.2,#009e73,#009e73,#009e73,0,0.1,#0072b2,#cc79a7,#FFFFFF,-0.1,-0.1,#4A4A4A,#4A4A4A,#4A4A4A,0.2,0,#f0e442,#f0e442,#f0e442,A1KMEBRRTN67LP,001,2020-12-11_20h51.18.589,change-localization,2020.1.2,Win32,60,,,,,,,,,
,,0.099074074,0.006481481,1,0,0,1.39569,probe5,"[0.1,0]",0,5,5,5,1,6,probe5,0.05,0.05,-0.1,0.1,#f0e442,#f0e442,#f0e442,0,0.1,#009e73,#009e73,#009e73,-0.2,0,#4A4A4A,#4A4A4A,#4A4A4A,0,-0.2,#d55e00,#d55e00,#d55e00,0.1,0,#cc79a7,#0072b2,#FFFFFF,A1KMEBRRTN67LP,001,2020-12-11_20h51.18.589,change-localization,2020.1.2,Win32,60,,,,,,,,,
,,0.10462963,0.205555556,1,0,0,1.14515,probe2,"[0.1,0.2]",0,6,6,6,1,7,probe2,0.05,0.05,-0.2,-0.2,#4A4A4A,#4A4A4A,#4A4A4A,0.1,0.2,#0072b2,#d55e00,#FFFFFF,-0.1,-0.2,#f0e442,#f0e442,#f0e442,-0.2,0.2,#009e73,#009e73,#009e73,0.2,0.2,#e69f00,#e69f00,#e69f00,A1KMEBRRTN67LP,001,2020-12-11_20h51.18.589,change-localization,2020.1.2,Win32,60,,,,,,,,,
,,0.106481481,-0.212037037,1,0,0,1.50944,probe1,"[0.1,-0.2]",0,7,7,7,1,8,probe1,0.05,0.05,0.1,-0.2,#009e73,#f0e442,#FFFFFF,-0.1,0,#d55e00,#d55e00,#d55e00,-0.1,0.1,#4A4A4A,#4A4A4A,#4A4A4A,-0.2,0,#cc79a7,#cc79a7,#cc79a7,0.2,0,#e69f00,#e69f00,#e69f00,A1KMEBRRTN67LP,001,2020-12-11_20h51.18.589,change-localization,2020.1.2,Win32,60,,,,,,,,,
,,-0.203703704,0.112962963,1,0,0,0.999905,probe3,"[-0.2,0.1]",0,8,8,8,1,9,probe1,0.05,0.05,0.1,-0.2,#0072b2,#e69f00,#FFFFFF,-0.1,0.2,#f0e442,#f0e442,#f0e442,-0.2,0.1,#d55e00,#d55e00,#d55e00,0.2,0.2,#cc79a7,#cc79a7,#cc79a7,0.1,0.1,#56b4e9,#56b4e9,#56b4e9,A1KMEBRRTN67LP,001,2020-12-11_20h51.18.589,change-localization,2020.1.2,Win32,60,,,,,,,,,
,,-0.106481481,-0.098148148,1,0,0,1.13221,probe1,"[-0.1,-0.1]",0,9,9,9,1,10,probe1,0.05,0.05,-0.1,-0.1,#4A4A4A,#f0e442,#FFFFFF,0,0.2,#cc79a7,#cc79a7,#cc79a7,0.2,-0.2,#e69f00,#e69f00,#e69f00,0.1,-0.2,#009e73,#009e73,#009e73,0.1,0.1,#d55e00,#d55e00,#d55e00,A1KMEBRRTN67LP,001,2020-12-11_20h51.18.589,change-localization,2020.1.2,Win32,60,,,,,,,,,
,,-0.097222222,0.192592593,1,0,0,1.209075,probe2,"[-0.1,0.2]",,,,,,1,probe2,0.05,0.05,-0.2,0.2,#009e73,#009e73,,-0.1,0.2,#f0e442,#e69f00,,-0.1,0,#0072b2,#0072b2,,0,-0.2,#cc79a7,#cc79a7,,0,0.2,#d55e00,#d55e00,,A1KMEBRRTN67LP,001,2020-12-11_20h51.18.589,change-localization,2020.1.2,Win32,60,c,3.243685,0,0,0,0,1,,
,,-0.099074074,-0.090740741,1,0,0,0.902785,probe3,"[-0.1,-0.1]",,,,,,2,probe5,0.05,0.05,0,0.1,#009e73,#009e73,,0.2,0.1,#4A4A4A,#4A4A4A,,-0.1,-0.1,#cc79a7,#cc79a7,,0.1,0.1,#d55e00,#d55e00,,0,-0.1,#56b4e9,#e69f00,,A1KMEBRRTN67LP,001,2020-12-11_20h51.18.589,change-localization,2020.1.2,Win32,60,,,0,1,1,1,1,,
,,-0.09537037,0.089814815,1,0,0,0.8856,probe4,"[-0.1,0.1]",,,,,,3,probe4,0.05,0.05,0.1,-0.1,#56b4e9,#56b4e9,,0.2,0,#f0e442,#f0e442,,0.2,-0.1,#e69f00,#e69f00,,-0.1,0.1,#4A4A4A,#009e73,,-0.1,0.2,#d55e00,#d55e00,,A1KMEBRRTN67LP,001,2020-12-11_20h51.18.589,change-localization,2020.1.2,Win32,60,,,0,2,2,2,1,,
,,0.208333333,-0.206481481,1,0,0,1.277015,probe4,"[0.2,-0.2]",,,,,,4,probe5,0.05,0.05,0.2,0,#56b4e9,#56b4e9,,-0.2,-0.2,#cc79a7,#cc79a7,,0,0.2,#4A4A4A,#4A4A4A,,0.2,-0.2,#e69f00,#e69f00,,-0.2,0,#f0e442,#009e73,,A1KMEBRRTN67LP,001,2020-12-11_20h51.18.589,change-localization,2020.1.2,Win32,60,,,0,3,3,3,1,,
,,-0.097222222,-0.094444444,1,0,0,0.708835,probe3,"[-0.1,-0.1]",,,,,,5,probe3,0.05,0.05,-0.2,0.1,#4A4A4A,#4A4A4A,,0.2,0.2,#009e73,#009e73,,-0.1,-0.1,#0072b2,#f0e442,,0.2,0,#cc79a7,#cc79a7,,0.1,0.1,#e69f00,#e69f00,,A1KMEBRRTN67LP,001,2020-12-11_20h51.18.589,change-localization,2020.1.2,Win32,60,,,0,4,4,4,1,,
,,-0.212037037,-0.200925926,1,0,0,1.3811,probe5,"[-0.2,-0.2]",,,,,,6,probe4,0.05,0.05,-0.1,0.1,#d55e00,#d55e00,,-0.2,0.2,#0072b2,#0072b2,,0,-0.1,#e69f00,#e69f00,,0,0.2,#56b4e9,#4A4A4A,,-0.2,-0.2,#009e73,#009e73,,A1KMEBRRTN67LP,001,2020-12-11_20h51.18.589,change-localization,2020.1.2,Win32,60,,,0,5,5,5,1,,
,,0.196296296,0.203703704,1,0,0,0.895935,probe4,"[0.2,0.2]",,,,,,7,probe4,0.05,0.05,0.2,-0.1,#56b4e9,#56b4e9,,-0.1,-0.1,#e69f00,#e69f00,,-0.2,0.2,#009e73,#009e73,,0.2,0.2,#cc79a7,#4A4A4A,,0.2,-0.2,#d55e00,#d55e00,,A1KMEBRRTN67LP,001,2020-12-11_20h51.18.589,change-localization,2020.1.2,Win32,60,,,0,6,6,6,1,,
,,0.108333333,0.198148148,1,0,0,1.11783,probe2,"[0.1,0.2]",,,,,,8,probe4,0.05,0.05,-0.2,0.1,#e69f00,#e69f00,,0.1,0.2,#cc79a7,#cc79a7,,0.2,0.1,#4A4A4A,#4A4A4A,,-0.2,0.2,#56b4e9,#d55e00,,0.2,-0.1,#0072b2,#0072b2,,A1KMEBRRTN67LP,001,2020-12-11_20h51.18.589,change-localization,2020.1.2,Win32,60,,,0,7,7,7,1,,
,,0.193518519,0.194444444,1,0,0,0.90283,probe5,"[0.2,0.2]",,,,,,9,probe5,0.05,0.05,-0.1,0,#4A4A4A,#4A4A4A,,0.1,0.1,#56b4e9,#56b4e9,,-0.2,0.1,#009e73,#009e73,,0.2,0.1,#cc79a7,#cc79a7,,0.2,0.2,#d55e00,#f0e442,,A1KMEBRRTN67LP,001,2020-12-11_20h51.18.589,change-localization,2020.1.2,Win32,60,,,0,8,8,8,1,,
,,-0.009259259,0.090740741,1,0,0,1.43804,probe3,"[0,0.1]",,,,,,10,probe3,0.05,0.05,0.2,0.2,#f0e442,#f0e442,,0.1,-0.1,#e69f00,#e69f00,,0,0.1,#cc79a7,#4A4A4A,,-0.2,0.1,#56b4e9,#56b4e9,,0.2,0,#0072b2,#0072b2,,A1KMEBRRTN67LP,001,2020-12-11_20h51.18.589,change-localization,2020.1.2,Win32,60,,,0,9,9,9,1,,
,,0.1,-0.208333333,1,0,0,1.256125,probe5,"[0.1,-0.2]",,,,,,11,probe5,0.05,0.05,0.2,0.2,#4A4A4A,#4A4A4A,,0.1,0.2,#0072b2,#0072b2,,0.1,-0.1,#cc79a7,#cc79a7,,0,-0.2,#009e73,#009e73,,0.1,-0.2,#f0e442,#d55e00,,A1KMEBRRTN67LP,001,2020-12-11_20h51.18.589,change-localization,2020.1.2,Win32,60,,,0,10,10,10,1,,
,,0.087962963,0.003703704,1,0,0,0.80512,probe4,"[0.1,0]",,,,,,12,probe4,0.05,0.05,-0.1,-0.1,#009e73,#009e73,,-0.1,0,#56b4e9,#56b4e9,,-0.1,-0.2,#0072b2,#0072b2,,0.1,0,#d55e00,#f0e442,,0,-0.1,#cc79a7,#cc79a7,,A1KMEBRRTN67LP,001,2020-12-11_20h51.18.589,change-localization,2020.1.2,Win32,60,,,0,11,11,11,1,,
,,-0.192592593,0.207407407,1,0,0,0.958545,probe4,"[-0.2,0.2]",,,,,,13,probe4,0.05,0.05,0,-0.1,#f0e442,#f0e442,,0.1,-0.1,#d55e00,#d55e00,,0.1,0.1,#0072b2,#0072b2,,-0.2,0.2,#cc79a7,#4A4A4A,,0.1,0.2,#009e73,#009e73,,A1KMEBRRTN67LP,001,2020-12-11_20h51.18.589,change-localization,2020.1.2,Win32,60,,,0,12,12,12,1,,
,,0.098148148,0.199074074,1,0,0,1.768785,probe5,"[0.1,0.2]",,,,,,14,probe5,0.05,0.05,0,0.2,#cc79a7,#cc79a7,,0,-0.1,#4A4A4A,#4A4A4A,,-0.2,0,#56b4e9,#56b4e9,,0.1,0.1,#0072b2,#0072b2,,0.1,0.2,#009e73,#e69f00,,A1KMEBRRTN67LP,001,2020-12-11_20h51.18.589,change-localization,2020.1.2,Win32,60,,,0,13,13,13,1,,
,,0.193518519,-0.099074074,1,0,0,1.125105,probe5,"[0.2,-0.1]",,,,,,15,probe3,0.05,0.05,0.2,0.2,#cc79a7,#cc79a7,,0,0.2,#56b4e9,#56b4e9,,0.2,0.1,#d55e00,#4A4A4A,,0.1,-0.1,#f0e442,#f0e442,,0.2,-0.1,#0072b2,#0072b2,,A1KMEBRRTN67LP,001,2020-12-11_20h51.18.589,change-localization,2020.1.2,Win32,60,,,0,14,14,14,1,,
,,0.098148148,0.102777778,1,0,0,1.01381,probe3,"[0.1,0.1]",,,,,,16,probe3,0.05,0.05,-0.2,-0.1,#f0e442,#f0e442,,-0.2,0.2,#d55e00,#d55e00,,0.1,0.1,#009e73,#4A4A4A,,-0.2,0.1,#56b4e9,#56b4e9,,0,-0.1,#cc79a7,#cc79a7,,A1KMEBRRTN67LP,001,2020-12-11_20h51.18.589,change-localization,2020.1.2,Win32,60,,,0,15,15,15,1,,
,,-0.00462963,0.102777778,1,0,0,1.288705,probe3,"[0,0.1]",,,,,,17,probe3,0.05,0.05,0.2,-0.1,#cc79a7,#cc79a7,,0,-0.2,#0072b2,#0072b2,,0,0.1,#4A4A4A,#e69f00,,-0.2,-0.1,#f0e442,#f0e442,,-0.1,-0.1,#009e73,#009e73,,A1KMEBRRTN67LP,001,2020-12-11_20h51.18.589,change-localization,2020.1.2,Win32,60,,,0,16,16,16,1,,
,,0.199074074,-0.000925926,1,0,0,1.110555,probe3,"[0.2,0]",,,,,,18,probe3,0.05,0.05,-0.1,0.1,#d55e00,#d55e00,,-0.1,0.2,#e69f00,#e69f00,,0.2,0,#009e73,#0072b2,,0.1,-0.1,#cc79a7,#cc79a7,,-0.2,0.2,#4A4A4A,#4A4A4A,,A1KMEBRRTN67LP,001,2020-12-11_20h51.18.589,change-localization,2020.1.2,Win32,60,,,0,17,17,17,1,,
,,0.2,0.099074074,1,0,0,2.36101,probe4,"[0.2,0.1]",,,,,,19,probe3,0.05,0.05,-0.1,0.2,#0072b2,#0072b2,,0,-0.1,#4A4A4A,#4A4A4A,,-0.1,0.1,#e69f00,#009e73,,0.2,0.1,#d55e00,#d55e00,,-0.2,0.1,#cc79a7,#cc79a7,,A1KMEBRRTN67LP,001,2020-12-11_20h51.18.589,change-localization,2020.1.2,Win32,60,,,0,18,18,18,1,,
,,-0.000925926,-0.099074074,1,0,0,1.36793,probe4,"[0,-0.1]",,,,,,20,probe4,0.05,0.05,0.2,0,#56b4e9,#56b4e9,,-0.1,0.2,#009e73,#009e73,,-0.2,-0.2,#e69f00,#e69f00,,0,-0.1,#f0e442,#cc79a7,,-0.1,0,#4A4A4A,#4A4A4A,,A1KMEBRRTN67LP,001,2020-12-11_20h51.18.589,change-localization,2020.1.2,Win32,60,,,0,19,19,19,1,,
,,0.212962963,0.010185185,1,0,0,1.185645,probe3,"[0.2,0]",,,,,,21,probe3,0.05,0.05,-0.1,0.1,#0072b2,#0072b2,,-0.1,0.2,#009e73,#009e73,,0.2,0,#56b4e9,#4A4A4A,,-0.2,0.2,#f0e442,#f0e442,,0.2,0.1,#d55e00,#d55e00,,A1KMEBRRTN67LP,001,2020-12-11_20h51.18.589,change-localization,2020.1.2,Win32,60,,,0,20,20,20,1,,
,,-0.214814815,-0.108333333,1,0,0,1.159015,probe4,"[-0.2,-0.1]",,,,,,22,probe4,0.05,0.05,0.2,-0.1,#d55e00,#d55e00,,0.2,0,#56b4e9,#56b4e9,,0.1,-0.2,#cc79a7,#cc79a7,,-0.2,-0.1,#4A4A4A,#009e73,,0,-0.2,#e69f00,#e69f00,,A1KMEBRRTN67LP,001,2020-12-11_20h51.18.589,change-localization,2020.1.2,Win32,60,,,0,21,21,21,1,,
,,0.089814815,-0.212962963,1,0,0,1.298245,probe5,"[0.1,-0.2]",,,,,,23,probe4,0.05,0.05,0.1,0.1,#56b4e9,#56b4e9,,-0.2,-0.1,#0072b2,#0072b2,,0.2,0,#d55e00,#d55e00,,-0.2,-0.2,#cc79a7,#009e73,,0.1,-0.2,#4A4A4A,#4A4A4A,,A1KMEBRRTN67LP,001,2020-12-11_20h51.18.589,change-localization,2020.1.2,Win32,60,,,0,22,22,22,1,,
,,-0.102777778,-0.198148148,1,0,0,1.568935,probe1,"[-0.1,-0.2]",,,,,,24,probe2,0.05,0.05,-0.1,-0.2,#4A4A4A,#4A4A4A,,0.2,0.2,#d55e00,#e69f00,,0.1,-0.1,#f0e442,#f0e442,,0.1,0.1,#56b4e9,#56b4e9,,-0.2,0.1,#cc79a7,#cc79a7,,A1KMEBRRTN67LP,001,2020-12-11_20h51.18.589,change-localization,2020.1.2,Win32,60,,,0,23,23,23,1,,
,,0.201851852,-0.007407407,1,0,0,1.082945,probe3,"[0.2,0]",,,,,,25,probe3,0.05,0.05,-0.2,-0.2,#f0e442,#f0e442,,-0.1,-0.1,#4A4A4A,#4A4A4A,,0.2,0,#d55e00,#cc79a7,,0,0.2,#0072b2,#0072b2,,-0.2,0.1,#009e73,#009e73,,A1KMEBRRTN67LP,001,2020-12-11_20h51.18.589,change-localization,2020.1.2,Win32,60,,,0,24,24,24,1,,
,,-0.106481481,-0.211111111,1,0,0,1.750015,probe3,"[-0.1,-0.2]",,,,,,26,probe3,0.05,0.05,0.1,-0.1,#e69f00,#e69f00,,-0.2,0,#56b4e9,#56b4e9,,-0.1,-0.2,#009e73,#d55e00,,-0.2,-0.1,#4A4A4A,#4A4A4A,,0.1,0,#cc79a7,#cc79a7,,A1KMEBRRTN67LP,001,2020-12-11_20h51.18.589,change-localization,2020.1.2,Win32,60,,,0,25,25,25,1,,
,,-0.094444444,-0.100925926,1,0,0,2.347045,probe3,"[-0.1,-0.1]",,,,,,27,probe5,0.05,0.05,-0.1,-0.2,#009e73,#009e73,,0.2,0,#cc79a7,#cc79a7,,-0.1,-0.1,#e69f00,#e69f00,,0.1,0.1,#d55e00,#d55e00,,-0.2,-0.1,#4A4A4A,#0072b2,,A1KMEBRRTN67LP,001,2020-12-11_20h51.18.589,change-localization,2020.1.2,Win32,60,,,0,26,26,26,1,,
,,0.009259259,-0.203703704,1,0,0,1.47215,probe3,"[0,-0.2]",,,,,,28,probe5,0.05,0.05,-0.1,0.2,#009e73,#009e73,,-0.2,0.1,#56b4e9,#56b4e9,,0,-0.2,#d55e00,#d55e00,,0.1,0,#0072b2,#0072b2,,0.1,0.1,#f0e442,#e69f00,,A1KMEBRRTN67LP,001,2020-12-11_20h51.18.589,change-localization,2020.1.2,Win32,60,,,0,27,27,27,1,,
,,0.099074074,-0.097222222,1,0,0,1.209775,probe1,"[0.1,-0.1]",,,,,,29,probe1,0.05,0.05,0.1,-0.1,#4A4A4A,#56b4e9,,-0.2,0.2,#e69f00,#e69f00,,-0.1,-0.1,#f0e442,#f0e442,,0.1,0.2,#0072b2,#0072b2,,-0.1,-0.2,#cc79a7,#cc79a7,,A1KMEBRRTN67LP,001,2020-12-11_20h51.18.589,change-localization,2020.1.2,Win32,60,,,0,28,28,28,1,,
,,-0.002777778,-0.2,1,0,0,1.215875,probe3,"[0,-0.2]",,,,,,30,probe2,0.05,0.05,0.1,0.2,#f0e442,#f0e442,,-0.1,-0.2,#d55e00,#4A4A4A,,0,-0.2,#cc79a7,#cc79a7,,0.1,-0.2,#0072b2,#0072b2,,-0.2,0,#009e73,#009e73,,A1KMEBRRTN67LP,001,2020-12-11_20h51.18.589,change-localization,2020.1.2,Win32,60,,,0,29,29,29,1,,
,,-0.099074074,-0.096296296,1,0,0,1.165645,probe5,"[-0.1,-0.1]",,,,,,31,probe5,0.05,0.05,0,-0.2,#d55e00,#d55e00,,0.1,0,#e69f00,#e69f00,,0.1,0.2,#f0e442,#f0e442,,-0.2,-0.1,#cc79a7,#cc79a7,,-0.1,-0.1,#009e73,#4A4A4A,,A1KMEBRRTN67LP,001,2020-12-11_20h51.18.589,change-localization,2020.1.2,Win32,60,,,0,30,30,30,1,,
,,-0.102777778,-0.096296296,1,0,0,1.037285,probe2,"[-0.1,-0.1]",,,,,,32,probe3,0.05,0.05,0.2,0.2,#56b4e9,#56b4e9,,-0.1,-0.1,#009e73,#009e73,,0.2,0.1,#cc79a7,#0072b2,,-0.2,0.1,#4A4A4A,#4A4A4A,,-0.2,-0.1,#f0e442,#f0e442,,A1KMEBRRTN67LP,001,2020-12-11_20h51.18.589,change-localization,2020.1.2,Win32,60,,,0,31,31,31,1,,
,,0.09537037,0.088888889,1,0,0,1.15467,probe2,"[0.1,0.1]",,,,,,33,probe3,0.05,0.05,-0.1,-0.1,#0072b2,#0072b2,,0.1,0.1,#cc79a7,#cc79a7,,-0.1,0.1,#f0e442,#009e73,,0,-0.2,#56b4e9,#56b4e9,,0.1,0.2,#e69f00,#e69f00,,A1KMEBRRTN67LP,001,2020-12-11_20h51.18.589,change-localization,2020.1.2,Win32,60,,,0,32,32,32,1,,
,,0.1,-0.199074074,1,0,0,1.097215,probe3,"[0.1,-0.2]",,,,,,34,probe5,0.05,0.05,0.2,0.1,#e69f00,#e69f00,,-0.2,0.1,#cc79a7,#cc79a7,,0.1,-0.2,#0072b2,#0072b2,,0.2,-0.2,#d55e00,#d55e00,,-0.2,0,#56b4e9,#009e73,,A1KMEBRRTN67LP,001,2020-12-11_20h51.18.589,change-localization,2020.1.2,Win32,60,,,0,33,33,33,1,,
,,0.201851852,-0.09537037,1,0,0,1.35387,probe2,"[0.2,-0.1]",,,,,,35,probe2,0.05,0.05,0.2,0,#56b4e9,#56b4e9,,0.2,-0.1,#e69f00,#009e73,,0.1,-0.1,#f0e442,#f0e442,,0,0.2,#d55e00,#d55e00,,0.1,0.2,#cc79a7,#cc79a7,,A1KMEBRRTN67LP,001,2020-12-11_20h51.18.589,change-localization,2020.1.2,Win32,60,,,0,34,34,34,1,,
,,0.094444444,0.006481481,1,0,0,1.2219,probe5,"[0.1,0]",,,,,,36,probe3,0.05,0.05,0,0.1,#4A4A4A,#4A4A4A,,0.2,0.1,#009e73,#009e73,,-0.2,-0.1,#f0e442,#56b4e9,,-0.1,-0.1,#e69f00,#e69f00,,0.1,0,#0072b2,#0072b2,,A1KMEBRRTN67LP,001,2020-12-11_20h51.18.589,change-localization,2020.1.2,Win32,60,,,0,35,35,35,1,,
,,0.112037037,0.003703704,1,0,0,1.034785,probe5,"[0.1,0]",,,,,,37,probe5,0.05,0.05,-0.2,0.1,#e69f00,#e69f00,,0.1,0.1,#0072b2,#0072b2,,-0.2,0,#d55e00,#d55e00,,-0.1,0.2,#cc79a7,#cc79a7,,0.1,0,#009e73,#f0e442,,A1KMEBRRTN67LP,001,2020-12-11_20h51.18.589,change-localization,2020.1.2,Win32,60,,,0,36,36,36,1,,
,,0.096296296,0.000925926,1,0,0,0.9931,probe4,"[0.1,0]",,,,,,38,probe4,0.05,0.05,0.2,-0.2,#4A4A4A,#4A4A4A,,0.2,0,#0072b2,#0072b2,,0.1,-0.1,#e69f00,#e69f00,,0.1,0,#d55e00,#cc79a7,,0,-0.1,#009e73,#009e73,,A1KMEBRRTN67LP,001,2020-12-11_20h51.18.589,change-localization,2020.1.2,Win32,60,,,0,37,37,37,1,,
,,0.10462963,-0.099074074,1,0,0,2.069075,probe1,"[0.1,-0.1]",,,,,,39,probe4,0.05,0.05,0.1,-0.1,#e69f00,#e69f00,,-0.2,-0.1,#cc79a7,#cc79a7,,0.2,0.1,#d55e00,#d55e00,,-0.2,0.2,#56b4e9,#f0e442,,0,-0.1,#0072b2,#0072b2,,A1KMEBRRTN67LP,001,2020-12-11_20h51.18.589,change-localization,2020.1.2,Win32,60,,,0,38,38,38,1,,
,,-0.20462963,0.10462963,1,0,0,1.047915,probe1,"[-0.2,0.1]",,,,,,40,probe1,0.05,0.05,-0.2,0.1,#4A4A4A,#d55e00,,0.2,0.2,#009e73,#009e73,,-0.1,-0.1,#cc79a7,#cc79a7,,0.2,-0.2,#e69f00,#e69f00,,0.1,-0.1,#56b4e9,#56b4e9,,A1KMEBRRTN67LP,001,2020-12-11_20h51.18.589,change-localization,2020.1.2,Win32,60,,,0,39,39,39,1,,
,,-0.103703704,0.002777778,1,0,0,1.29918,probe4,"[-0.1,0]",,,,,,41,probe4,0.05,0.05,0.2,0.1,#009e73,#009e73,,-0.2,-0.1,#0072b2,#0072b2,,-0.2,-0.2,#56b4e9,#56b4e9,,-0.1,0,#f0e442,#cc79a7,,0,-0.2,#d55e00,#d55e00,,A1KMEBRRTN67LP,001,2020-12-11_20h51.18.589,change-localization,2020.1.2,Win32,60,,,0,40,40,40,1,,
,,0.100925926,0.093518519,1,0,0,1.666335,probe3,"[0.1,0.1]",,,,,,42,probe4,0.05,0.05,-0.1,-0.2,#009e73,#009e73,,-0.1,0.1,#cc79a7,#cc79a7,,0.1,0.1,#56b4e9,#56b4e9,,0,-0.2,#e69f00,#d55e00,,-0.1,0,#0072b2,#0072b2,,A1KMEBRRTN67LP,001,2020-12-11_20h51.18.589,change-localization,2020.1.2,Win32,60,,,0,41,41,41,1,,
,,0.201851852,-0.103703704,1,0,0,1.27109,probe1,"[0.2,-0.1]",,,,,,43,probe1,0.05,0.05,0.2,-0.1,#e69f00,#009e73,,0.1,0,#cc79a7,#cc79a7,,-0.2,-0.2,#f0e442,#f0e442,,0.2,-0.2,#56b4e9,#56b4e9,,-0.2,0.1,#4A4A4A,#4A4A4A,,A1KMEBRRTN67LP,001,2020-12-11_20h51.18.589,change-localization,2020.1.2,Win32,60,,,0,42,42,42,1,,
,,0.199074074,0.108333333,1,0,0,0.846645,probe2,"[0.2,0.1]",,,,,,44,probe1,0.05,0.05,-0.1,0.2,#56b4e9,#e69f00,,0.2,0.1,#4A4A4A,#4A4A4A,,0.1,0,#cc79a7,#cc79a7,,0.1,0.2,#f0e442,#f0e442,,-0.1,-0.1,#d55e00,#d55e00,,A1KMEBRRTN67LP,001,2020-12-11_20h51.18.589,change-localization,2020.1.2,Win32,60,,,0,43,43,43,1,,
,,-0.010185185,-0.197222222,1,0,0,1.840275,probe5,"[0,-0.2]",,,,,,45,probe3,0.05,0.05,-0.2,0.2,#0072b2,#0072b2,,-0.2,-0.1,#56b4e9,#56b4e9,,-0.1,0.1,#f0e442,#e69f00,,-0.1,0.2,#d55e00,#d55e00,,0,-0.2,#cc79a7,#cc79a7,,A1KMEBRRTN67LP,001,2020-12-11_20h51.18.589,change-localization,2020.1.2,Win32,60,,,0,44,44,44,1,,
,,0.200925926,0.005555556,1,0,0,1.014295,probe5,"[0.2,0]",,,,,,46,probe5,0.05,0.05,0.2,0.1,#0072b2,#0072b2,,0.1,0.2,#f0e442,#f0e442,,0.2,-0.2,#009e73,#009e73,,0.2,0.2,#4A4A4A,#4A4A4A,,0.2,0,#cc79a7,#e69f00,,A1KMEBRRTN67LP,001,2020-12-11_20h51.18.589,change-localization,2020.1.2,Win32,60,,,0,45,45,45,1,,
,,-0.006481481,-0.108333333,1,0,0,1.087145,probe1,"[0,-0.1]",,,,,,47,probe3,0.05,0.05,0,-0.1,#009e73,#009e73,,-0.2,0.2,#f0e442,#f0e442,,0.2,0.2,#56b4e9,#cc79a7,,-0.1,0.2,#4A4A4A,#4A4A4A,,-0.1,0.1,#e69f00,#e69f00,,A1KMEBRRTN67LP,001,2020-12-11_20h51.18.589,change-localization,2020.1.2,Win32,60,,,0,46,46,46,1,,
,,-0.101851852,0.087962963,1,0,0,1.261235,probe2,"[-0.1,0.1]",,,,,,48,probe4,0.05,0.05,0.2,-0.2,#cc79a7,#cc79a7,,-0.1,0.1,#009e73,#009e73,,0.1,-0.2,#f0e442,#f0e442,,-0.2,-0.1,#d55e00,#0072b2,,-0.1,0,#56b4e9,#56b4e9,,A1KMEBRRTN67LP,001,2020-12-11_20h51.18.589,change-localization,2020.1.2,Win32,60,,,0,47,47,47,1,,
,,-0.207407407,-0.006481481,1,0,0,1.22934,probe2,"[-0.2,0]",,,,,,49,probe2,0.05,0.05,0,-0.2,#e69f00,#e69f00,,-0.2,0,#cc79a7,#0072b2,,-0.1,0.2,#f0e442,#f0e442,,0.1,0.2,#4A4A4A,#4A4A4A,,-0.1,-0.1,#56b4e9,#56b4e9,,A1KMEBRRTN67LP,001,2020-12-11_20h51.18.589,change-localization,2020.1.2,Win32,60,,,0,48,48,48,1,,
,,0.09537037,-0.196296296,1,0,0,1.909165,probe3,"[0.1,-0.2]",,,,,,50,probe4,0.05,0.05,0.2,0.1,#0072b2,#0072b2,,0.1,0.1,#cc79a7,#cc79a7,,0.1,-0.2,#56b4e9,#56b4e9,,-0.1,0,#009e73,#e69f00,,0,0.1,#d55e00,#d55e00,,A1KMEBRRTN67LP,001,2020-12-11_20h51.18.589,change-localization,2020.1.2,Win32,60,,,0,49,49,49,1,,
,,,,,,,,,,,,,,,,,,,,,,,,,,,,,,,,,,,,,,,,,,,,A1KMEBRRTN67LP,001,2020-12-11_20h51.18.589,change-localization,2020.1.2,Win32,60,,,,,,,,c,3.63446
