key_resp.keys,key_resp.rt,mouse.x,mouse.y,mouse.leftButton,mouse.midButton,mouse.rightButton,mouse.time,mouse.clicked_name,mouse.clicked_pos,training.thisRepN,training.thisTrialN,training.thisN,training.thisIndex,training.ran,trial,answer,height,width,x1,y1,stim_color1,probe_color1,copy_color1,x2,y2,stim_color2,probe_color2,copy_color2,x3,y3,stim_color3,probe_color3,copy_color3,x4,y4,stim_color4,probe_color4,copy_color4,x5,y5,stim_color5,probe_color5,copy_color5,participant,session,date,expName,psychopyVersion,OS,frameRate,key_resp_2.keys,key_resp_2.rt,trials.thisRepN,trials.thisTrialN,trials.thisN,trials.thisIndex,trials.ran,completion_keys.keys,completion_keys.rt
c,2.133,-0.101851852,-0.212962963,1,0,0,1.709,probe3,"[-0.1,-0.2]",0,0,0,0,1,1,probe4,0.05,0.05,0.1,0.2,#0072b2,#0072b2,#0072b2,0.1,-0.1,#e69f00,#e69f00,#e69f00,-0.1,-0.2,#cc79a7,#cc79a7,#cc79a7,0.2,-0.1,#4A4A4A,#f0e442,#FFFFFF,0.2,0,#009e73,#009e73,#009e73,A1MJ447F04WG8T,001,2020-12-11_22h34.27.003,change-localization,2020.1.2,Win32,60,,,,,,,,,
,,-0.092592593,0.001157407,1,0,0,0.945,probe5,"[-0.1,0]",0,1,1,1,1,2,probe1,0.05,0.05,0.2,0,#d55e00,#009e73,#FFFFFF,0.2,-0.1,#e69f00,#e69f00,#e69f00,0.1,0,#4A4A4A,#4A4A4A,#4A4A4A,-0.1,0.1,#56b4e9,#56b4e9,#56b4e9,-0.1,0,#cc79a7,#cc79a7,#cc79a7,A1MJ447F04WG8T,001,2020-12-11_22h34.27.003,change-localization,2020.1.2,Win32,60,,,,,,,,,
,,-0.103009259,-0.106481481,1,0,0,2.428,probe4,"[-0.1,-0.1]",0,2,2,2,1,3,probe1,0.05,0.05,-0.2,-0.2,#f0e442,#009e73,#FFFFFF,0.2,-0.1,#d55e00,#d55e00,#d55e00,-0.2,0,#4A4A4A,#4A4A4A,#4A4A4A,-0.1,-0.1,#0072b2,#0072b2,#0072b2,0,-0.1,#56b4e9,#56b4e9,#56b4e9,A1MJ447F04WG8T,001,2020-12-11_22h34.27.003,change-localization,2020.1.2,Win32,60,,,,,,,,,
,,-0.21412037,-0.013888889,1,0,0,2.312,probe4,"[-0.2,0]",0,3,3,3,1,4,probe1,0.05,0.05,0.2,0.2,#d55e00,#56b4e9,#FFFFFF,-0.2,0.2,#f0e442,#f0e442,#f0e442,0.2,-0.2,#0072b2,#0072b2,#0072b2,-0.2,0,#cc79a7,#cc79a7,#cc79a7,-0.2,0.1,#4A4A4A,#4A4A4A,#4A4A4A,A1MJ447F04WG8T,001,2020-12-11_22h34.27.003,change-localization,2020.1.2,Win32,60,,,,,,,,,
,,-0.111111111,-0.085648148,1,0,0,1.693,probe4,"[-0.1,-0.1]",0,4,4,4,1,5,probe3,0.05,0.05,-0.2,0.1,#56b4e9,#56b4e9,#56b4e9,0,0.2,#009e73,#009e73,#009e73,0,0.1,#0072b2,#cc79a7,#FFFFFF,-0.1,-0.1,#4A4A4A,#4A4A4A,#4A4A4A,0.2,0,#f0e442,#f0e442,#f0e442,A1MJ447F04WG8T,001,2020-12-11_22h34.27.003,change-localization,2020.1.2,Win32,60,,,,,,,,,
,,0,-0.194444444,1,0,0,1.313,probe4,"[0,-0.2]",0,5,5,5,1,6,probe5,0.05,0.05,-0.1,0.1,#f0e442,#f0e442,#f0e442,0,0.1,#009e73,#009e73,#009e73,-0.2,0,#4A4A4A,#4A4A4A,#4A4A4A,0,-0.2,#d55e00,#d55e00,#d55e00,0.1,0,#cc79a7,#0072b2,#FFFFFF,A1MJ447F04WG8T,001,2020-12-11_22h34.27.003,change-localization,2020.1.2,Win32,60,,,,,,,,,
,,-0.111111111,-0.203703704,1,0,0,0.629,probe3,"[-0.1,-0.2]",0,6,6,6,1,7,probe2,0.05,0.05,-0.2,-0.2,#4A4A4A,#4A4A4A,#4A4A4A,0.1,0.2,#0072b2,#d55e00,#FFFFFF,-0.1,-0.2,#f0e442,#f0e442,#f0e442,-0.2,0.2,#009e73,#009e73,#009e73,0.2,0.2,#e69f00,#e69f00,#e69f00,A1MJ447F04WG8T,001,2020-12-11_22h34.27.003,change-localization,2020.1.2,Win32,60,,,,,,,,,
,,-0.092592593,0.005787037,1,0,0,0.688,probe2,"[-0.1,0]",0,7,7,7,1,8,probe1,0.05,0.05,0.1,-0.2,#009e73,#f0e442,#FFFFFF,-0.1,0,#d55e00,#d55e00,#d55e00,-0.1,0.1,#4A4A4A,#4A4A4A,#4A4A4A,-0.2,0,#cc79a7,#cc79a7,#cc79a7,0.2,0,#e69f00,#e69f00,#e69f00,A1MJ447F04WG8T,001,2020-12-11_22h34.27.003,change-localization,2020.1.2,Win32,60,,,,,,,,,
,,0.065972222,-0.172453704,1,0,0,1.829,probe1,"[0.1,-0.2]",0,8,8,8,1,9,probe1,0.05,0.05,0.1,-0.2,#0072b2,#e69f00,#FFFFFF,-0.1,0.2,#f0e442,#f0e442,#f0e442,-0.2,0.1,#d55e00,#d55e00,#d55e00,0.2,0.2,#cc79a7,#cc79a7,#cc79a7,0.1,0.1,#56b4e9,#56b4e9,#56b4e9,A1MJ447F04WG8T,001,2020-12-11_22h34.27.003,change-localization,2020.1.2,Win32,60,,,,,,,,,
,,0.099537037,-0.200231481,1,0,0,0.689,probe4,"[0.1,-0.2]",0,9,9,9,1,10,probe1,0.05,0.05,-0.1,-0.1,#4A4A4A,#f0e442,#FFFFFF,0,0.2,#cc79a7,#cc79a7,#cc79a7,0.2,-0.2,#e69f00,#e69f00,#e69f00,0.1,-0.2,#009e73,#009e73,#009e73,0.1,0.1,#d55e00,#d55e00,#d55e00,A1MJ447F04WG8T,001,2020-12-11_22h34.27.003,change-localization,2020.1.2,Win32,60,,,,,,,,,
,,-0.09837963,0.001157407,1,0,0,0.774,probe3,"[-0.1,0]",,,,,,1,probe2,0.05,0.05,-0.2,0.2,#009e73,#009e73,,-0.1,0.2,#f0e442,#e69f00,,-0.1,0,#0072b2,#0072b2,,0,-0.2,#cc79a7,#cc79a7,,0,0.2,#d55e00,#d55e00,,A1MJ447F04WG8T,001,2020-12-11_22h34.27.003,change-localization,2020.1.2,Win32,60,c,2.341,0,0,0,0,1,,
,,-0.012731481,-0.101851852,1,0,0,0.543,probe5,"[0,-0.1]",,,,,,2,probe5,0.05,0.05,0,0.1,#009e73,#009e73,,0.2,0.1,#4A4A4A,#4A4A4A,,-0.1,-0.1,#cc79a7,#cc79a7,,0.1,0.1,#d55e00,#d55e00,,0,-0.1,#56b4e9,#e69f00,,A1MJ447F04WG8T,001,2020-12-11_22h34.27.003,change-localization,2020.1.2,Win32,60,,,0,1,1,1,1,,
,,-0.103009259,0.092592593,1,0,0,0.438,probe4,"[-0.1,0.1]",,,,,,3,probe4,0.05,0.05,0.1,-0.1,#56b4e9,#56b4e9,,0.2,0,#f0e442,#f0e442,,0.2,-0.1,#e69f00,#e69f00,,-0.1,0.1,#4A4A4A,#009e73,,-0.1,0.2,#d55e00,#d55e00,,A1MJ447F04WG8T,001,2020-12-11_22h34.27.003,change-localization,2020.1.2,Win32,60,,,0,2,2,2,1,,
,,0.199074074,-0.201388889,1,0,0,0.689,probe4,"[0.2,-0.2]",,,,,,4,probe5,0.05,0.05,0.2,0,#56b4e9,#56b4e9,,-0.2,-0.2,#cc79a7,#cc79a7,,0,0.2,#4A4A4A,#4A4A4A,,0.2,-0.2,#e69f00,#e69f00,,-0.2,0,#f0e442,#009e73,,A1MJ447F04WG8T,001,2020-12-11_22h34.27.003,change-localization,2020.1.2,Win32,60,,,0,3,3,3,1,,
,,-0.111111111,-0.100694444,1,0,0,3.167,probe3,"[-0.1,-0.1]",,,,,,5,probe3,0.05,0.05,-0.2,0.1,#4A4A4A,#4A4A4A,,0.2,0.2,#009e73,#009e73,,-0.1,-0.1,#0072b2,#f0e442,,0.2,0,#cc79a7,#cc79a7,,0.1,0.1,#e69f00,#e69f00,,A1MJ447F04WG8T,001,2020-12-11_22h34.27.003,change-localization,2020.1.2,Win32,60,,,0,4,4,4,1,,
,,-0.101851852,0.087962963,1,0,0,0.686,probe1,"[-0.1,0.1]",,,,,,6,probe4,0.05,0.05,-0.1,0.1,#d55e00,#d55e00,,-0.2,0.2,#0072b2,#0072b2,,0,-0.1,#e69f00,#e69f00,,0,0.2,#56b4e9,#4A4A4A,,-0.2,-0.2,#009e73,#009e73,,A1MJ447F04WG8T,001,2020-12-11_22h34.27.003,change-localization,2020.1.2,Win32,60,,,0,5,5,5,1,,
,,-0.074074074,-0.094907407,1,0,0,1.515,probe2,"[-0.1,-0.1]",,,,,,7,probe4,0.05,0.05,0.2,-0.1,#56b4e9,#56b4e9,,-0.1,-0.1,#e69f00,#e69f00,,-0.2,0.2,#009e73,#009e73,,0.2,0.2,#cc79a7,#4A4A4A,,0.2,-0.2,#d55e00,#d55e00,,A1MJ447F04WG8T,001,2020-12-11_22h34.27.003,change-localization,2020.1.2,Win32,60,,,0,6,6,6,1,,
,,-0.171296296,0.103009259,1,0,0,1.527,probe1,"[-0.2,0.1]",,,,,,8,probe4,0.05,0.05,-0.2,0.1,#e69f00,#e69f00,,0.1,0.2,#cc79a7,#cc79a7,,0.2,0.1,#4A4A4A,#4A4A4A,,-0.2,0.2,#56b4e9,#d55e00,,0.2,-0.1,#0072b2,#0072b2,,A1MJ447F04WG8T,001,2020-12-11_22h34.27.003,change-localization,2020.1.2,Win32,60,,,0,7,7,7,1,,
,,-0.099537037,-0.00462963,1,0,0,1.304,probe1,"[-0.1,0]",,,,,,9,probe5,0.05,0.05,-0.1,0,#4A4A4A,#4A4A4A,,0.1,0.1,#56b4e9,#56b4e9,,-0.2,0.1,#009e73,#009e73,,0.2,0.1,#cc79a7,#cc79a7,,0.2,0.2,#d55e00,#f0e442,,A1MJ447F04WG8T,001,2020-12-11_22h34.27.003,change-localization,2020.1.2,Win32,60,,,0,8,8,8,1,,
,,-0.006944444,0.09375,1,0,0,3.121,probe3,"[0,0.1]",,,,,,10,probe3,0.05,0.05,0.2,0.2,#f0e442,#f0e442,,0.1,-0.1,#e69f00,#e69f00,,0,0.1,#cc79a7,#4A4A4A,,-0.2,0.1,#56b4e9,#56b4e9,,0.2,0,#0072b2,#0072b2,,A1MJ447F04WG8T,001,2020-12-11_22h34.27.003,change-localization,2020.1.2,Win32,60,,,0,9,9,9,1,,
,,0.091435185,-0.097222222,1,0,0,0.873,probe3,"[0.1,-0.1]",,,,,,11,probe5,0.05,0.05,0.2,0.2,#4A4A4A,#4A4A4A,,0.1,0.2,#0072b2,#0072b2,,0.1,-0.1,#cc79a7,#cc79a7,,0,-0.2,#009e73,#009e73,,0.1,-0.2,#f0e442,#d55e00,,A1MJ447F04WG8T,001,2020-12-11_22h34.27.003,change-localization,2020.1.2,Win32,60,,,0,10,10,10,1,,
,,0.018518519,-0.097222222,1,0,0,2.496,probe5,"[0,-0.1]",,,,,,12,probe4,0.05,0.05,-0.1,-0.1,#009e73,#009e73,,-0.1,0,#56b4e9,#56b4e9,,-0.1,-0.2,#0072b2,#0072b2,,0.1,0,#d55e00,#f0e442,,0,-0.1,#cc79a7,#cc79a7,,A1MJ447F04WG8T,001,2020-12-11_22h34.27.003,change-localization,2020.1.2,Win32,60,,,0,11,11,11,1,,
,,0.009259259,-0.09375,1,0,0,2.178,probe1,"[0,-0.1]",,,,,,13,probe4,0.05,0.05,0,-0.1,#f0e442,#f0e442,,0.1,-0.1,#d55e00,#d55e00,,0.1,0.1,#0072b2,#0072b2,,-0.2,0.2,#cc79a7,#4A4A4A,,0.1,0.2,#009e73,#009e73,,A1MJ447F04WG8T,001,2020-12-11_22h34.27.003,change-localization,2020.1.2,Win32,60,,,0,12,12,12,1,,
,,0.001157407,-0.09375,1,0,0,2.814,probe2,"[0,-0.1]",,,,,,14,probe5,0.05,0.05,0,0.2,#cc79a7,#cc79a7,,0,-0.1,#4A4A4A,#4A4A4A,,-0.2,0,#56b4e9,#56b4e9,,0.1,0.1,#0072b2,#0072b2,,0.1,0.2,#009e73,#e69f00,,A1MJ447F04WG8T,001,2020-12-11_22h34.27.003,change-localization,2020.1.2,Win32,60,,,0,13,13,13,1,,
,,0.078703704,-0.107638889,1,0,0,1.836,probe4,"[0.1,-0.1]",,,,,,15,probe3,0.05,0.05,0.2,0.2,#cc79a7,#cc79a7,,0,0.2,#56b4e9,#56b4e9,,0.2,0.1,#d55e00,#4A4A4A,,0.1,-0.1,#f0e442,#f0e442,,0.2,-0.1,#0072b2,#0072b2,,A1MJ447F04WG8T,001,2020-12-11_22h34.27.003,change-localization,2020.1.2,Win32,60,,,0,14,14,14,1,,
,,0.00462963,-0.091435185,1,0,0,0.877,probe5,"[0,-0.1]",,,,,,16,probe3,0.05,0.05,-0.2,-0.1,#f0e442,#f0e442,,-0.2,0.2,#d55e00,#d55e00,,0.1,0.1,#009e73,#4A4A4A,,-0.2,0.1,#56b4e9,#56b4e9,,0,-0.1,#cc79a7,#cc79a7,,A1MJ447F04WG8T,001,2020-12-11_22h34.27.003,change-localization,2020.1.2,Win32,60,,,0,15,15,15,1,,
,,-0.103009259,-0.092592593,1,0,0,1.301,probe5,"[-0.1,-0.1]",,,,,,17,probe3,0.05,0.05,0.2,-0.1,#cc79a7,#cc79a7,,0,-0.2,#0072b2,#0072b2,,0,0.1,#4A4A4A,#e69f00,,-0.2,-0.1,#f0e442,#f0e442,,-0.1,-0.1,#009e73,#009e73,,A1MJ447F04WG8T,001,2020-12-11_22h34.27.003,change-localization,2020.1.2,Win32,60,,,0,16,16,16,1,,
,,-0.101851852,0.097222222,1,0,0,3.919,probe1,"[-0.1,0.1]",,,,,,18,probe3,0.05,0.05,-0.1,0.1,#d55e00,#d55e00,,-0.1,0.2,#e69f00,#e69f00,,0.2,0,#009e73,#0072b2,,0.1,-0.1,#cc79a7,#cc79a7,,-0.2,0.2,#4A4A4A,#4A4A4A,,A1MJ447F04WG8T,001,2020-12-11_22h34.27.003,change-localization,2020.1.2,Win32,60,,,0,17,17,17,1,,
,,0,-0.083333333,1,0,0,1.92,probe2,"[0,-0.1]",,,,,,19,probe3,0.05,0.05,-0.1,0.2,#0072b2,#0072b2,,0,-0.1,#4A4A4A,#4A4A4A,,-0.1,0.1,#e69f00,#009e73,,0.2,0.1,#d55e00,#d55e00,,-0.2,0.1,#cc79a7,#cc79a7,,A1MJ447F04WG8T,001,2020-12-11_22h34.27.003,change-localization,2020.1.2,Win32,60,,,0,18,18,18,1,,
,,-0.103009259,-0.003472222,1,0,0,2.407,probe5,"[-0.1,0]",,,,,,20,probe4,0.05,0.05,0.2,0,#56b4e9,#56b4e9,,-0.1,0.2,#009e73,#009e73,,-0.2,-0.2,#e69f00,#e69f00,,0,-0.1,#f0e442,#cc79a7,,-0.1,0,#4A4A4A,#4A4A4A,,A1MJ447F04WG8T,001,2020-12-11_22h34.27.003,change-localization,2020.1.2,Win32,60,,,0,19,19,19,1,,
,,-0.094907407,0.08912037,1,0,0,1.083,probe1,"[-0.1,0.1]",,,,,,21,probe3,0.05,0.05,-0.1,0.1,#0072b2,#0072b2,,-0.1,0.2,#009e73,#009e73,,0.2,0,#56b4e9,#4A4A4A,,-0.2,0.2,#f0e442,#f0e442,,0.2,0.1,#d55e00,#d55e00,,A1MJ447F04WG8T,001,2020-12-11_22h34.27.003,change-localization,2020.1.2,Win32,60,,,0,20,20,20,1,,
,,-0.010416667,-0.217592593,1,0,0,2.762,probe5,"[0,-0.2]",,,,,,22,probe4,0.05,0.05,0.2,-0.1,#d55e00,#d55e00,,0.2,0,#56b4e9,#56b4e9,,0.1,-0.2,#cc79a7,#cc79a7,,-0.2,-0.1,#4A4A4A,#009e73,,0,-0.2,#e69f00,#e69f00,,A1MJ447F04WG8T,001,2020-12-11_22h34.27.003,change-localization,2020.1.2,Win32,60,,,0,21,21,21,1,,
,,0.122685185,-0.207175926,1,0,0,7.378,probe5,"[0.1,-0.2]",,,,,,23,probe4,0.05,0.05,0.1,0.1,#56b4e9,#56b4e9,,-0.2,-0.1,#0072b2,#0072b2,,0.2,0,#d55e00,#d55e00,,-0.2,-0.2,#cc79a7,#009e73,,0.1,-0.2,#4A4A4A,#4A4A4A,,A1MJ447F04WG8T,001,2020-12-11_22h34.27.003,change-localization,2020.1.2,Win32,60,,,0,22,22,22,1,,
,,0.099537037,-0.103009259,1,0,0,1.994,probe3,"[0.1,-0.1]",,,,,,24,probe2,0.05,0.05,-0.1,-0.2,#4A4A4A,#4A4A4A,,0.2,0.2,#d55e00,#e69f00,,0.1,-0.1,#f0e442,#f0e442,,0.1,0.1,#56b4e9,#56b4e9,,-0.2,0.1,#cc79a7,#cc79a7,,A1MJ447F04WG8T,001,2020-12-11_22h34.27.003,change-localization,2020.1.2,Win32,60,,,0,23,23,23,1,,
,,-0.104166667,-0.12037037,1,0,0,2.7,probe2,"[-0.1,-0.1]",,,,,,25,probe3,0.05,0.05,-0.2,-0.2,#f0e442,#f0e442,,-0.1,-0.1,#4A4A4A,#4A4A4A,,0.2,0,#d55e00,#cc79a7,,0,0.2,#0072b2,#0072b2,,-0.2,0.1,#009e73,#009e73,,A1MJ447F04WG8T,001,2020-12-11_22h34.27.003,change-localization,2020.1.2,Win32,60,,,0,24,24,24,1,,
,,-0.202546296,-0.097222222,1,0,0,4.508,probe4,"[-0.2,-0.1]",,,,,,26,probe3,0.05,0.05,0.1,-0.1,#e69f00,#e69f00,,-0.2,0,#56b4e9,#56b4e9,,-0.1,-0.2,#009e73,#d55e00,,-0.2,-0.1,#4A4A4A,#4A4A4A,,0.1,0,#cc79a7,#cc79a7,,A1MJ447F04WG8T,001,2020-12-11_22h34.27.003,change-localization,2020.1.2,Win32,60,,,0,25,25,25,1,,
,,-0.111111111,-0.099537037,1,0,0,2.68,probe3,"[-0.1,-0.1]",,,,,,27,probe5,0.05,0.05,-0.1,-0.2,#009e73,#009e73,,0.2,0,#cc79a7,#cc79a7,,-0.1,-0.1,#e69f00,#e69f00,,0.1,0.1,#d55e00,#d55e00,,-0.2,-0.1,#4A4A4A,#0072b2,,A1MJ447F04WG8T,001,2020-12-11_22h34.27.003,change-localization,2020.1.2,Win32,60,,,0,26,26,26,1,,
,,0.003472222,-0.189814815,1,0,0,1.96,probe3,"[0,-0.2]",,,,,,28,probe5,0.05,0.05,-0.1,0.2,#009e73,#009e73,,-0.2,0.1,#56b4e9,#56b4e9,,0,-0.2,#d55e00,#d55e00,,0.1,0,#0072b2,#0072b2,,0.1,0.1,#f0e442,#e69f00,,A1MJ447F04WG8T,001,2020-12-11_22h34.27.003,change-localization,2020.1.2,Win32,60,,,0,27,27,27,1,,
,,-0.092592593,-0.105324074,1,0,0,1.506,probe3,"[-0.1,-0.1]",,,,,,29,probe1,0.05,0.05,0.1,-0.1,#4A4A4A,#56b4e9,,-0.2,0.2,#e69f00,#e69f00,,-0.1,-0.1,#f0e442,#f0e442,,0.1,0.2,#0072b2,#0072b2,,-0.1,-0.2,#cc79a7,#cc79a7,,A1MJ447F04WG8T,001,2020-12-11_22h34.27.003,change-localization,2020.1.2,Win32,60,,,0,28,28,28,1,,
,,-0.00462963,-0.19212963,1,0,0,1.215,probe3,"[0,-0.2]",,,,,,30,probe2,0.05,0.05,0.1,0.2,#f0e442,#f0e442,,-0.1,-0.2,#d55e00,#4A4A4A,,0,-0.2,#cc79a7,#cc79a7,,0.1,-0.2,#0072b2,#0072b2,,-0.2,0,#009e73,#009e73,,A1MJ447F04WG8T,001,2020-12-11_22h34.27.003,change-localization,2020.1.2,Win32,60,,,0,29,29,29,1,,
,,-0.005787037,-0.196759259,1,0,0,1.999,probe1,"[0,-0.2]",,,,,,31,probe5,0.05,0.05,0,-0.2,#d55e00,#d55e00,,0.1,0,#e69f00,#e69f00,,0.1,0.2,#f0e442,#f0e442,,-0.2,-0.1,#cc79a7,#cc79a7,,-0.1,-0.1,#009e73,#4A4A4A,,A1MJ447F04WG8T,001,2020-12-11_22h34.27.003,change-localization,2020.1.2,Win32,60,,,0,30,30,30,1,,
,,-0.197916667,-0.115740741,1,0,0,2.174,probe5,"[-0.2,-0.1]",,,,,,32,probe3,0.05,0.05,0.2,0.2,#56b4e9,#56b4e9,,-0.1,-0.1,#009e73,#009e73,,0.2,0.1,#cc79a7,#0072b2,,-0.2,0.1,#4A4A4A,#4A4A4A,,-0.2,-0.1,#f0e442,#f0e442,,A1MJ447F04WG8T,001,2020-12-11_22h34.27.003,change-localization,2020.1.2,Win32,60,,,0,31,31,31,1,,
,,0.003472222,-0.189814815,1,0,0,0.999,probe4,"[0,-0.2]",,,,,,33,probe3,0.05,0.05,-0.1,-0.1,#0072b2,#0072b2,,0.1,0.1,#cc79a7,#cc79a7,,-0.1,0.1,#f0e442,#009e73,,0,-0.2,#56b4e9,#56b4e9,,0.1,0.2,#e69f00,#e69f00,,A1MJ447F04WG8T,001,2020-12-11_22h34.27.003,change-localization,2020.1.2,Win32,60,,,0,32,32,32,1,,
,,-0.189814815,-0.011574074,1,0,0,6.298,probe5,"[-0.2,0]",,,,,,34,probe5,0.05,0.05,0.2,0.1,#e69f00,#e69f00,,-0.2,0.1,#cc79a7,#cc79a7,,0.1,-0.2,#0072b2,#0072b2,,0.2,-0.2,#d55e00,#d55e00,,-0.2,0,#56b4e9,#009e73,,A1MJ447F04WG8T,001,2020-12-11_22h34.27.003,change-localization,2020.1.2,Win32,60,,,0,33,33,33,1,,
,,0.119212963,-0.116898148,1,0,0,1.892,probe3,"[0.1,-0.1]",,,,,,35,probe2,0.05,0.05,0.2,0,#56b4e9,#56b4e9,,0.2,-0.1,#e69f00,#009e73,,0.1,-0.1,#f0e442,#f0e442,,0,0.2,#d55e00,#d55e00,,0.1,0.2,#cc79a7,#cc79a7,,A1MJ447F04WG8T,001,2020-12-11_22h34.27.003,change-localization,2020.1.2,Win32,60,,,0,34,34,34,1,,
,,0.09837963,-0.002314815,1,0,0,1.788,probe5,"[0.1,0]",,,,,,36,probe3,0.05,0.05,0,0.1,#4A4A4A,#4A4A4A,,0.2,0.1,#009e73,#009e73,,-0.2,-0.1,#f0e442,#56b4e9,,-0.1,-0.1,#e69f00,#e69f00,,0.1,0,#0072b2,#0072b2,,A1MJ447F04WG8T,001,2020-12-11_22h34.27.003,change-localization,2020.1.2,Win32,60,,,0,35,35,35,1,,
,,0.107638889,0.002314815,1,0,0,0.927,probe5,"[0.1,0]",,,,,,37,probe5,0.05,0.05,-0.2,0.1,#e69f00,#e69f00,,0.1,0.1,#0072b2,#0072b2,,-0.2,0,#d55e00,#d55e00,,-0.1,0.2,#cc79a7,#cc79a7,,0.1,0,#009e73,#f0e442,,A1MJ447F04WG8T,001,2020-12-11_22h34.27.003,change-localization,2020.1.2,Win32,60,,,0,36,36,36,1,,
,,0.107638889,0.002314815,1,0,0,1.502,probe4,"[0.1,0]",,,,,,38,probe4,0.05,0.05,0.2,-0.2,#4A4A4A,#4A4A4A,,0.2,0,#0072b2,#0072b2,,0.1,-0.1,#e69f00,#e69f00,,0.1,0,#d55e00,#cc79a7,,0,-0.1,#009e73,#009e73,,A1MJ447F04WG8T,001,2020-12-11_22h34.27.003,change-localization,2020.1.2,Win32,60,,,0,37,37,37,1,,
,,0.009259259,-0.083333333,1,0,0,1.202,probe5,"[0,-0.1]",,,,,,39,probe4,0.05,0.05,0.1,-0.1,#e69f00,#e69f00,,-0.2,-0.1,#cc79a7,#cc79a7,,0.2,0.1,#d55e00,#d55e00,,-0.2,0.2,#56b4e9,#f0e442,,0,-0.1,#0072b2,#0072b2,,A1MJ447F04WG8T,001,2020-12-11_22h34.27.003,change-localization,2020.1.2,Win32,60,,,0,38,38,38,1,,
,,0.103009259,-0.094907407,1,0,0,0.792,probe5,"[0.1,-0.1]",,,,,,40,probe1,0.05,0.05,-0.2,0.1,#4A4A4A,#d55e00,,0.2,0.2,#009e73,#009e73,,-0.1,-0.1,#cc79a7,#cc79a7,,0.2,-0.2,#e69f00,#e69f00,,0.1,-0.1,#56b4e9,#56b4e9,,A1MJ447F04WG8T,001,2020-12-11_22h34.27.003,change-localization,2020.1.2,Win32,60,,,0,39,39,39,1,,
,,0.005787037,-0.209490741,1,0,0,0.745,probe5,"[0,-0.2]",,,,,,41,probe4,0.05,0.05,0.2,0.1,#009e73,#009e73,,-0.2,-0.1,#0072b2,#0072b2,,-0.2,-0.2,#56b4e9,#56b4e9,,-0.1,0,#f0e442,#cc79a7,,0,-0.2,#d55e00,#d55e00,,A1MJ447F04WG8T,001,2020-12-11_22h34.27.003,change-localization,2020.1.2,Win32,60,,,0,40,40,40,1,,
,,0.00462963,-0.19212963,1,0,0,3.692,probe4,"[0,-0.2]",,,,,,42,probe4,0.05,0.05,-0.1,-0.2,#009e73,#009e73,,-0.1,0.1,#cc79a7,#cc79a7,,0.1,0.1,#56b4e9,#56b4e9,,0,-0.2,#e69f00,#d55e00,,-0.1,0,#0072b2,#0072b2,,A1MJ447F04WG8T,001,2020-12-11_22h34.27.003,change-localization,2020.1.2,Win32,60,,,0,41,41,41,1,,
,,-0.201388889,0.103009259,1,0,0,2.925,probe5,"[-0.2,0.1]",,,,,,43,probe1,0.05,0.05,0.2,-0.1,#e69f00,#009e73,,0.1,0,#cc79a7,#cc79a7,,-0.2,-0.2,#f0e442,#f0e442,,0.2,-0.2,#56b4e9,#56b4e9,,-0.2,0.1,#4A4A4A,#4A4A4A,,A1MJ447F04WG8T,001,2020-12-11_22h34.27.003,change-localization,2020.1.2,Win32,60,,,0,42,42,42,1,,
,,-0.101851852,-0.111111111,1,0,0,1.388,probe5,"[-0.1,-0.1]",,,,,,44,probe1,0.05,0.05,-0.1,0.2,#56b4e9,#e69f00,,0.2,0.1,#4A4A4A,#4A4A4A,,0.1,0,#cc79a7,#cc79a7,,0.1,0.2,#f0e442,#f0e442,,-0.1,-0.1,#d55e00,#d55e00,,A1MJ447F04WG8T,001,2020-12-11_22h34.27.003,change-localization,2020.1.2,Win32,60,,,0,43,43,43,1,,
,,-0.193287037,-0.087962963,1,0,0,1.358,probe2,"[-0.2,-0.1]",,,,,,45,probe3,0.05,0.05,-0.2,0.2,#0072b2,#0072b2,,-0.2,-0.1,#56b4e9,#56b4e9,,-0.1,0.1,#f0e442,#e69f00,,-0.1,0.2,#d55e00,#d55e00,,0,-0.2,#cc79a7,#cc79a7,,A1MJ447F04WG8T,001,2020-12-11_22h34.27.003,change-localization,2020.1.2,Win32,60,,,0,44,44,44,1,,
,,0.194444444,-0.217592593,1,0,0,1.09,probe3,"[0.2,-0.2]",,,,,,46,probe5,0.05,0.05,0.2,0.1,#0072b2,#0072b2,,0.1,0.2,#f0e442,#f0e442,,0.2,-0.2,#009e73,#009e73,,0.2,0.2,#4A4A4A,#4A4A4A,,0.2,0,#cc79a7,#e69f00,,A1MJ447F04WG8T,001,2020-12-11_22h34.27.003,change-localization,2020.1.2,Win32,60,,,0,45,45,45,1,,
,,-0.009259259,-0.100694444,1,0,0,1.246,probe1,"[0,-0.1]",,,,,,47,probe3,0.05,0.05,0,-0.1,#009e73,#009e73,,-0.2,0.2,#f0e442,#f0e442,,0.2,0.2,#56b4e9,#cc79a7,,-0.1,0.2,#4A4A4A,#4A4A4A,,-0.1,0.1,#e69f00,#e69f00,,A1MJ447F04WG8T,001,2020-12-11_22h34.27.003,change-localization,2020.1.2,Win32,60,,,0,46,46,46,1,,
,,-0.100694444,-0.013888889,1,0,0,2.084,probe5,"[-0.1,0]",,,,,,48,probe4,0.05,0.05,0.2,-0.2,#cc79a7,#cc79a7,,-0.1,0.1,#009e73,#009e73,,0.1,-0.2,#f0e442,#f0e442,,-0.2,-0.1,#d55e00,#0072b2,,-0.1,0,#56b4e9,#56b4e9,,A1MJ447F04WG8T,001,2020-12-11_22h34.27.003,change-localization,2020.1.2,Win32,60,,,0,47,47,47,1,,
,,-0.002314815,-0.199074074,1,0,0,0.829,probe1,"[0,-0.2]",,,,,,49,probe2,0.05,0.05,0,-0.2,#e69f00,#e69f00,,-0.2,0,#cc79a7,#0072b2,,-0.1,0.2,#f0e442,#f0e442,,0.1,0.2,#4A4A4A,#4A4A4A,,-0.1,-0.1,#56b4e9,#56b4e9,,A1MJ447F04WG8T,001,2020-12-11_22h34.27.003,change-localization,2020.1.2,Win32,60,,,0,48,48,48,1,,
,,0.101851852,-0.212962963,1,0,0,1.786,probe3,"[0.1,-0.2]",,,,,,50,probe4,0.05,0.05,0.2,0.1,#0072b2,#0072b2,,0.1,0.1,#cc79a7,#cc79a7,,0.1,-0.2,#56b4e9,#56b4e9,,-0.1,0,#009e73,#e69f00,,0,0.1,#d55e00,#d55e00,,A1MJ447F04WG8T,001,2020-12-11_22h34.27.003,change-localization,2020.1.2,Win32,60,,,0,49,49,49,1,,
,,,,,,,,,,,,,,,,,,,,,,,,,,,,,,,,,,,,,,,,,,,,A1MJ447F04WG8T,001,2020-12-11_22h34.27.003,change-localization,2020.1.2,Win32,60,,,,,,,,c,6.55
