key_resp.keys,key_resp.rt,mouse.x,mouse.y,mouse.leftButton,mouse.midButton,mouse.rightButton,mouse.time,mouse.clicked_name,mouse.clicked_pos,training.thisRepN,training.thisTrialN,training.thisN,training.thisIndex,training.ran,trial,answer,height,width,x1,y1,stim_color1,probe_color1,copy_color1,x2,y2,stim_color2,probe_color2,copy_color2,x3,y3,stim_color3,probe_color3,copy_color3,x4,y4,stim_color4,probe_color4,copy_color4,x5,y5,stim_color5,probe_color5,copy_color5,participant,session,date,expName,psychopyVersion,OS,frameRate,key_resp_2.keys,key_resp_2.rt,trials.thisRepN,trials.thisTrialN,trials.thisN,trials.thisIndex,trials.ran,completion_keys.keys,completion_keys.rt
c,2.621655,0.194010417,-0.01171875,1,0,0,0.975445,probe5,"[0.2,0]",0,0,0,0,1,1,probe4,0.05,0.05,0.1,0.2,#0072b2,#0072b2,#0072b2,0.1,-0.1,#e69f00,#e69f00,#e69f00,-0.1,-0.2,#cc79a7,#cc79a7,#cc79a7,0.2,-0.1,#4A4A4A,#f0e442,#FFFFFF,0.2,0,#009e73,#009e73,#009e73,A1N04FX8AHYPBU,001,2020-12-11_18h04.11.156,change-localization,2020.1.2,Win32,60,,,,,,,,,
,,0.106770833,0.005208333,1,0,0,4.186415,probe3,"[0.1,0]",0,1,1,1,1,2,probe1,0.05,0.05,0.2,0,#d55e00,#009e73,#FFFFFF,0.2,-0.1,#e69f00,#e69f00,#e69f00,0.1,0,#4A4A4A,#4A4A4A,#4A4A4A,-0.1,0.1,#56b4e9,#56b4e9,#56b4e9,-0.1,0,#cc79a7,#cc79a7,#cc79a7,A1N04FX8AHYPBU,001,2020-12-11_18h04.11.156,change-localization,2020.1.2,Win32,60,,,,,,,,,
,,-0.01171875,-0.123697917,1,0,0,0.43575,probe5,"[0,-0.1]",0,2,2,2,1,3,probe1,0.05,0.05,-0.2,-0.2,#f0e442,#009e73,#FFFFFF,0.2,-0.1,#d55e00,#d55e00,#d55e00,-0.2,0,#4A4A4A,#4A4A4A,#4A4A4A,-0.1,-0.1,#0072b2,#0072b2,#0072b2,0,-0.1,#56b4e9,#56b4e9,#56b4e9,A1N04FX8AHYPBU,001,2020-12-11_18h04.11.156,change-localization,2020.1.2,Win32,60,,,,,,,,,
,,-0.188802083,-0.0078125,1,0,0,1.0542,probe4,"[-0.2,0]",0,3,3,3,1,4,probe1,0.05,0.05,0.2,0.2,#d55e00,#56b4e9,#FFFFFF,-0.2,0.2,#f0e442,#f0e442,#f0e442,0.2,-0.2,#0072b2,#0072b2,#0072b2,-0.2,0,#cc79a7,#cc79a7,#cc79a7,-0.2,0.1,#4A4A4A,#4A4A4A,#4A4A4A,A1N04FX8AHYPBU,001,2020-12-11_18h04.11.156,change-localization,2020.1.2,Win32,60,,,,,,,,,
,,-0.053385417,0.114583333,1,0,0,0.44318,probe3,"[0,0.1]",0,4,4,4,1,5,probe3,0.05,0.05,-0.2,0.1,#56b4e9,#56b4e9,#56b4e9,0,0.2,#009e73,#009e73,#009e73,0,0.1,#0072b2,#cc79a7,#FFFFFF,-0.1,-0.1,#4A4A4A,#4A4A4A,#4A4A4A,0.2,0,#f0e442,#f0e442,#f0e442,A1N04FX8AHYPBU,001,2020-12-11_18h04.11.156,change-localization,2020.1.2,Win32,60,,,,,,,,,
,,-0.19140625,0.0078125,1,0,0,1.59932,probe3,"[-0.2,0]",0,5,5,5,1,6,probe5,0.05,0.05,-0.1,0.1,#f0e442,#f0e442,#f0e442,0,0.1,#009e73,#009e73,#009e73,-0.2,0,#4A4A4A,#4A4A4A,#4A4A4A,0,-0.2,#d55e00,#d55e00,#d55e00,0.1,0,#cc79a7,#0072b2,#FFFFFF,A1N04FX8AHYPBU,001,2020-12-11_18h04.11.156,change-localization,2020.1.2,Win32,60,,,,,,,,,
,,-0.200520833,-0.188802083,1,0,0,2.520525,probe1,"[-0.2,-0.2]",0,6,6,6,1,7,probe2,0.05,0.05,-0.2,-0.2,#4A4A4A,#4A4A4A,#4A4A4A,0.1,0.2,#0072b2,#d55e00,#FFFFFF,-0.1,-0.2,#f0e442,#f0e442,#f0e442,-0.2,0.2,#009e73,#009e73,#009e73,0.2,0.2,#e69f00,#e69f00,#e69f00,A1N04FX8AHYPBU,001,2020-12-11_18h04.11.156,change-localization,2020.1.2,Win32,60,,,,,,,,,
,,-0.095052083,0.00390625,1,0,0,5.15031,probe2,"[-0.1,0]",0,7,7,7,1,8,probe1,0.05,0.05,0.1,-0.2,#009e73,#f0e442,#FFFFFF,-0.1,0,#d55e00,#d55e00,#d55e00,-0.1,0.1,#4A4A4A,#4A4A4A,#4A4A4A,-0.2,0,#cc79a7,#cc79a7,#cc79a7,0.2,0,#e69f00,#e69f00,#e69f00,A1N04FX8AHYPBU,001,2020-12-11_18h04.11.156,change-localization,2020.1.2,Win32,60,,,,,,,,,
,,-0.165364583,0.084635417,1,0,0,0.311185,probe5,"[0.1,0.1]",0,8,8,8,1,9,probe1,0.05,0.05,0.1,-0.2,#0072b2,#e69f00,#FFFFFF,-0.1,0.2,#f0e442,#f0e442,#f0e442,-0.2,0.1,#d55e00,#d55e00,#d55e00,0.2,0.2,#cc79a7,#cc79a7,#cc79a7,0.1,0.1,#56b4e9,#56b4e9,#56b4e9,A1N04FX8AHYPBU,001,2020-12-11_18h04.11.156,change-localization,2020.1.2,Win32,60,,,,,,,,,
,,-0.096354167,-0.0859375,1,0,0,2.22097,probe1,"[-0.1,-0.1]",0,9,9,9,1,10,probe1,0.05,0.05,-0.1,-0.1,#4A4A4A,#f0e442,#FFFFFF,0,0.2,#cc79a7,#cc79a7,#cc79a7,0.2,-0.2,#e69f00,#e69f00,#e69f00,0.1,-0.2,#009e73,#009e73,#009e73,0.1,0.1,#d55e00,#d55e00,#d55e00,A1N04FX8AHYPBU,001,2020-12-11_18h04.11.156,change-localization,2020.1.2,Win32,60,,,,,,,,,
,,-0.095052083,0.00390625,1,0,0,1.630555,probe3,"[-0.1,0]",,,,,,1,probe2,0.05,0.05,-0.2,0.2,#009e73,#009e73,,-0.1,0.2,#f0e442,#e69f00,,-0.1,0,#0072b2,#0072b2,,0,-0.2,#cc79a7,#cc79a7,,0,0.2,#d55e00,#d55e00,,A1N04FX8AHYPBU,001,2020-12-11_18h04.11.156,change-localization,2020.1.2,Win32,60,c,2.124125,0,0,0,0,1,,
,,-0.0078125,0.069010417,1,0,0,0.51572,probe3,"[-0.1,-0.1]",,,,,,2,probe5,0.05,0.05,0,0.1,#009e73,#009e73,,0.2,0.1,#4A4A4A,#4A4A4A,,-0.1,-0.1,#cc79a7,#cc79a7,,0.1,0.1,#d55e00,#d55e00,,0,-0.1,#56b4e9,#e69f00,,A1N04FX8AHYPBU,001,2020-12-11_18h04.11.156,change-localization,2020.1.2,Win32,60,,,0,1,1,1,1,,
,,0.115885417,-0.098958333,1,0,0,2.02897,probe1,"[0.1,-0.1]",,,,,,3,probe4,0.05,0.05,0.1,-0.1,#56b4e9,#56b4e9,,0.2,0,#f0e442,#f0e442,,0.2,-0.1,#e69f00,#e69f00,,-0.1,0.1,#4A4A4A,#009e73,,-0.1,0.2,#d55e00,#d55e00,,A1N04FX8AHYPBU,001,2020-12-11_18h04.11.156,change-localization,2020.1.2,Win32,60,,,0,2,2,2,1,,
,,0.197916667,0.006510417,1,0,0,1.97617,probe1,"[0.2,0]",,,,,,4,probe5,0.05,0.05,0.2,0,#56b4e9,#56b4e9,,-0.2,-0.2,#cc79a7,#cc79a7,,0,0.2,#4A4A4A,#4A4A4A,,0.2,-0.2,#e69f00,#e69f00,,-0.2,0,#f0e442,#009e73,,A1N04FX8AHYPBU,001,2020-12-11_18h04.11.156,change-localization,2020.1.2,Win32,60,,,0,3,3,3,1,,
,,-0.34375,0.029947917,1,0,0,0.341775,probe3,"[-0.1,-0.1]",,,,,,5,probe3,0.05,0.05,-0.2,0.1,#4A4A4A,#4A4A4A,,0.2,0.2,#009e73,#009e73,,-0.1,-0.1,#0072b2,#f0e442,,0.2,0,#cc79a7,#cc79a7,,0.1,0.1,#e69f00,#e69f00,,A1N04FX8AHYPBU,001,2020-12-11_18h04.11.156,change-localization,2020.1.2,Win32,60,,,0,4,4,4,1,,
,,-0.106770833,0.1015625,1,0,0,1.50885,probe1,"[-0.1,0.1]",,,,,,6,probe4,0.05,0.05,-0.1,0.1,#d55e00,#d55e00,,-0.2,0.2,#0072b2,#0072b2,,0,-0.1,#e69f00,#e69f00,,0,0.2,#56b4e9,#4A4A4A,,-0.2,-0.2,#009e73,#009e73,,A1N04FX8AHYPBU,001,2020-12-11_18h04.11.156,change-localization,2020.1.2,Win32,60,,,0,5,5,5,1,,
,,0.00390625,-0.088541667,1,0,0,0.19814,probe2,"[-0.1,-0.1]",,,,,,7,probe4,0.05,0.05,0.2,-0.1,#56b4e9,#56b4e9,,-0.1,-0.1,#e69f00,#e69f00,,-0.2,0.2,#009e73,#009e73,,0.2,0.2,#cc79a7,#4A4A4A,,0.2,-0.2,#d55e00,#d55e00,,A1N04FX8AHYPBU,001,2020-12-11_18h04.11.156,change-localization,2020.1.2,Win32,60,,,0,6,6,6,1,,
,,-0.196614583,0.1015625,1,0,0,1.61663,probe1,"[-0.2,0.1]",,,,,,8,probe4,0.05,0.05,-0.2,0.1,#e69f00,#e69f00,,0.1,0.2,#cc79a7,#cc79a7,,0.2,0.1,#4A4A4A,#4A4A4A,,-0.2,0.2,#56b4e9,#d55e00,,0.2,-0.1,#0072b2,#0072b2,,A1N04FX8AHYPBU,001,2020-12-11_18h04.11.156,change-localization,2020.1.2,Win32,60,,,0,7,7,7,1,,
,,-0.2109375,0.098958333,1,0,0,14.93226,probe3,"[-0.2,0.1]",,,,,,9,probe5,0.05,0.05,-0.1,0,#4A4A4A,#4A4A4A,,0.1,0.1,#56b4e9,#56b4e9,,-0.2,0.1,#009e73,#009e73,,0.2,0.1,#cc79a7,#cc79a7,,0.2,0.2,#d55e00,#f0e442,,A1N04FX8AHYPBU,001,2020-12-11_18h04.11.156,change-localization,2020.1.2,Win32,60,,,0,8,8,8,1,,
,,0.002604167,0.109375,1,0,0,2.070745,probe3,"[0,0.1]",,,,,,10,probe3,0.05,0.05,0.2,0.2,#f0e442,#f0e442,,0.1,-0.1,#e69f00,#e69f00,,0,0.1,#cc79a7,#4A4A4A,,-0.2,0.1,#56b4e9,#56b4e9,,0.2,0,#0072b2,#0072b2,,A1N04FX8AHYPBU,001,2020-12-11_18h04.11.156,change-localization,2020.1.2,Win32,60,,,0,9,9,9,1,,
,,0.096354167,-0.111979167,1,0,0,5.837955,probe3,"[0.1,-0.1]",,,,,,11,probe5,0.05,0.05,0.2,0.2,#4A4A4A,#4A4A4A,,0.1,0.2,#0072b2,#0072b2,,0.1,-0.1,#cc79a7,#cc79a7,,0,-0.2,#009e73,#009e73,,0.1,-0.2,#f0e442,#d55e00,,A1N04FX8AHYPBU,001,2020-12-11_18h04.11.156,change-localization,2020.1.2,Win32,60,,,0,10,10,10,1,,
,,-0.0078125,-0.0625,1,0,0,0.83685,probe2,"[-0.1,0]",,,,,,12,probe4,0.05,0.05,-0.1,-0.1,#009e73,#009e73,,-0.1,0,#56b4e9,#56b4e9,,-0.1,-0.2,#0072b2,#0072b2,,0.1,0,#d55e00,#f0e442,,0,-0.1,#cc79a7,#cc79a7,,A1N04FX8AHYPBU,001,2020-12-11_18h04.11.156,change-localization,2020.1.2,Win32,60,,,0,11,11,11,1,,
,,0.114583333,0.092447917,1,0,0,1.835745,probe3,"[0.1,0.1]",,,,,,13,probe4,0.05,0.05,0,-0.1,#f0e442,#f0e442,,0.1,-0.1,#d55e00,#d55e00,,0.1,0.1,#0072b2,#0072b2,,-0.2,0.2,#cc79a7,#4A4A4A,,0.1,0.2,#009e73,#009e73,,A1N04FX8AHYPBU,001,2020-12-11_18h04.11.156,change-localization,2020.1.2,Win32,60,,,0,12,12,12,1,,
,,-0.00390625,-0.09765625,1,0,0,0.0595,probe2,"[0,-0.1]",,,,,,14,probe5,0.05,0.05,0,0.2,#cc79a7,#cc79a7,,0,-0.1,#4A4A4A,#4A4A4A,,-0.2,0,#56b4e9,#56b4e9,,0.1,0.1,#0072b2,#0072b2,,0.1,0.2,#009e73,#e69f00,,A1N04FX8AHYPBU,001,2020-12-11_18h04.11.156,change-localization,2020.1.2,Win32,60,,,0,13,13,13,1,,
,,0.053385417,0.0703125,1,0,0,0.43396,probe2,"[0,0.2]",,,,,,15,probe3,0.05,0.05,0.2,0.2,#cc79a7,#cc79a7,,0,0.2,#56b4e9,#56b4e9,,0.2,0.1,#d55e00,#4A4A4A,,0.1,-0.1,#f0e442,#f0e442,,0.2,-0.1,#0072b2,#0072b2,,A1N04FX8AHYPBU,001,2020-12-11_18h04.11.156,change-localization,2020.1.2,Win32,60,,,0,14,14,14,1,,
,,-0.151041667,0.083333333,1,0,0,0.159585,probe1,"[-0.2,-0.1]",,,,,,16,probe3,0.05,0.05,-0.2,-0.1,#f0e442,#f0e442,,-0.2,0.2,#d55e00,#d55e00,,0.1,0.1,#009e73,#4A4A4A,,-0.2,0.1,#56b4e9,#56b4e9,,0,-0.1,#cc79a7,#cc79a7,,A1N04FX8AHYPBU,001,2020-12-11_18h04.11.156,change-localization,2020.1.2,Win32,60,,,0,15,15,15,1,,
,,-0.194010417,-0.09375,1,0,0,0.28744,probe4,"[-0.2,-0.1]",,,,,,17,probe3,0.05,0.05,0.2,-0.1,#cc79a7,#cc79a7,,0,-0.2,#0072b2,#0072b2,,0,0.1,#4A4A4A,#e69f00,,-0.2,-0.1,#f0e442,#f0e442,,-0.1,-0.1,#009e73,#009e73,,A1N04FX8AHYPBU,001,2020-12-11_18h04.11.156,change-localization,2020.1.2,Win32,60,,,0,16,16,16,1,,
,,-0.092447917,0.10546875,1,0,0,1.71953,probe1,"[-0.1,0.1]",,,,,,18,probe3,0.05,0.05,-0.1,0.1,#d55e00,#d55e00,,-0.1,0.2,#e69f00,#e69f00,,0.2,0,#009e73,#0072b2,,0.1,-0.1,#cc79a7,#cc79a7,,-0.2,0.2,#4A4A4A,#4A4A4A,,A1N04FX8AHYPBU,001,2020-12-11_18h04.11.156,change-localization,2020.1.2,Win32,60,,,0,17,17,17,1,,
,,-0.095052083,0.09765625,1,0,0,1.56129,probe3,"[-0.1,0.1]",,,,,,19,probe3,0.05,0.05,-0.1,0.2,#0072b2,#0072b2,,0,-0.1,#4A4A4A,#4A4A4A,,-0.1,0.1,#e69f00,#009e73,,0.2,0.1,#d55e00,#d55e00,,-0.2,0.1,#cc79a7,#cc79a7,,A1N04FX8AHYPBU,001,2020-12-11_18h04.11.156,change-localization,2020.1.2,Win32,60,,,0,18,18,18,1,,
,,0.005208333,-0.096354167,1,0,0,2.807395,probe4,"[0,-0.1]",,,,,,20,probe4,0.05,0.05,0.2,0,#56b4e9,#56b4e9,,-0.1,0.2,#009e73,#009e73,,-0.2,-0.2,#e69f00,#e69f00,,0,-0.1,#f0e442,#cc79a7,,-0.1,0,#4A4A4A,#4A4A4A,,A1N04FX8AHYPBU,001,2020-12-11_18h04.11.156,change-localization,2020.1.2,Win32,60,,,0,19,19,19,1,,
,,0.173177083,0.001302083,1,0,0,0.22307,probe3,"[0.2,0]",,,,,,21,probe3,0.05,0.05,-0.1,0.1,#0072b2,#0072b2,,-0.1,0.2,#009e73,#009e73,,0.2,0,#56b4e9,#4A4A4A,,-0.2,0.2,#f0e442,#f0e442,,0.2,0.1,#d55e00,#d55e00,,A1N04FX8AHYPBU,001,2020-12-11_18h04.11.156,change-localization,2020.1.2,Win32,60,,,0,20,20,20,1,,
,,-0.037760417,-0.1484375,1,0,0,0.973435,probe5,"[0,-0.2]",,,,,,22,probe4,0.05,0.05,0.2,-0.1,#d55e00,#d55e00,,0.2,0,#56b4e9,#56b4e9,,0.1,-0.2,#cc79a7,#cc79a7,,-0.2,-0.1,#4A4A4A,#009e73,,0,-0.2,#e69f00,#e69f00,,A1N04FX8AHYPBU,001,2020-12-11_18h04.11.156,change-localization,2020.1.2,Win32,60,,,0,21,21,21,1,,
,,-0.19140625,-0.108072917,1,0,0,0.232025,probe2,"[-0.2,-0.1]",,,,,,23,probe4,0.05,0.05,0.1,0.1,#56b4e9,#56b4e9,,-0.2,-0.1,#0072b2,#0072b2,,0.2,0,#d55e00,#d55e00,,-0.2,-0.2,#cc79a7,#009e73,,0.1,-0.2,#4A4A4A,#4A4A4A,,A1N04FX8AHYPBU,001,2020-12-11_18h04.11.156,change-localization,2020.1.2,Win32,60,,,0,22,22,22,1,,
,,0.046875,-0.134114583,1,0,0,0.36908,probe1,"[-0.1,-0.2]",,,,,,24,probe2,0.05,0.05,-0.1,-0.2,#4A4A4A,#4A4A4A,,0.2,0.2,#d55e00,#e69f00,,0.1,-0.1,#f0e442,#f0e442,,0.1,0.1,#56b4e9,#56b4e9,,-0.2,0.1,#cc79a7,#cc79a7,,A1N04FX8AHYPBU,001,2020-12-11_18h04.11.156,change-localization,2020.1.2,Win32,60,,,0,23,23,23,1,,
,,0.192708333,0.0078125,1,0,0,4.49656,probe3,"[0.2,0]",,,,,,25,probe3,0.05,0.05,-0.2,-0.2,#f0e442,#f0e442,,-0.1,-0.1,#4A4A4A,#4A4A4A,,0.2,0,#d55e00,#cc79a7,,0,0.2,#0072b2,#0072b2,,-0.2,0.1,#009e73,#009e73,,A1N04FX8AHYPBU,001,2020-12-11_18h04.11.156,change-localization,2020.1.2,Win32,60,,,0,24,24,24,1,,
,,0.111979167,-0.001302083,1,0,0,0.42988,probe5,"[0.1,0]",,,,,,26,probe3,0.05,0.05,0.1,-0.1,#e69f00,#e69f00,,-0.2,0,#56b4e9,#56b4e9,,-0.1,-0.2,#009e73,#d55e00,,-0.2,-0.1,#4A4A4A,#4A4A4A,,0.1,0,#cc79a7,#cc79a7,,A1N04FX8AHYPBU,001,2020-12-11_18h04.11.156,change-localization,2020.1.2,Win32,60,,,0,25,25,25,1,,
,,-0.091145833,-0.1015625,1,0,0,4.115525,probe3,"[-0.1,-0.1]",,,,,,27,probe5,0.05,0.05,-0.1,-0.2,#009e73,#009e73,,0.2,0,#cc79a7,#cc79a7,,-0.1,-0.1,#e69f00,#e69f00,,0.1,0.1,#d55e00,#d55e00,,-0.2,-0.1,#4A4A4A,#0072b2,,A1N04FX8AHYPBU,001,2020-12-11_18h04.11.156,change-localization,2020.1.2,Win32,60,,,0,26,26,26,1,,
,,0.080729167,0.088541667,1,0,0,1.06119,probe5,"[0.1,0.1]",,,,,,28,probe5,0.05,0.05,-0.1,0.2,#009e73,#009e73,,-0.2,0.1,#56b4e9,#56b4e9,,0,-0.2,#d55e00,#d55e00,,0.1,0,#0072b2,#0072b2,,0.1,0.1,#f0e442,#e69f00,,A1N04FX8AHYPBU,001,2020-12-11_18h04.11.156,change-localization,2020.1.2,Win32,60,,,0,27,27,27,1,,
,,-0.1015625,-0.109375,1,0,0,0.90916,probe3,"[-0.1,-0.1]",,,,,,29,probe1,0.05,0.05,0.1,-0.1,#4A4A4A,#56b4e9,,-0.2,0.2,#e69f00,#e69f00,,-0.1,-0.1,#f0e442,#f0e442,,0.1,0.2,#0072b2,#0072b2,,-0.1,-0.2,#cc79a7,#cc79a7,,A1N04FX8AHYPBU,001,2020-12-11_18h04.11.156,change-localization,2020.1.2,Win32,60,,,0,28,28,28,1,,
,,-0.186197917,0.0078125,1,0,0,2.17472,probe5,"[-0.2,0]",,,,,,30,probe2,0.05,0.05,0.1,0.2,#f0e442,#f0e442,,-0.1,-0.2,#d55e00,#4A4A4A,,0,-0.2,#cc79a7,#cc79a7,,0.1,-0.2,#0072b2,#0072b2,,-0.2,0,#009e73,#009e73,,A1N04FX8AHYPBU,001,2020-12-11_18h04.11.156,change-localization,2020.1.2,Win32,60,,,0,29,29,29,1,,
,,-0.104166667,-0.096354167,1,0,0,1.034095,probe5,"[-0.1,-0.1]",,,,,,31,probe5,0.05,0.05,0,-0.2,#d55e00,#d55e00,,0.1,0,#e69f00,#e69f00,,0.1,0.2,#f0e442,#f0e442,,-0.2,-0.1,#cc79a7,#cc79a7,,-0.1,-0.1,#009e73,#4A4A4A,,A1N04FX8AHYPBU,001,2020-12-11_18h04.11.156,change-localization,2020.1.2,Win32,60,,,0,30,30,30,1,,
,,0.192708333,0.096354167,1,0,0,2.84007,probe3,"[0.2,0.1]",,,,,,32,probe3,0.05,0.05,0.2,0.2,#56b4e9,#56b4e9,,-0.1,-0.1,#009e73,#009e73,,0.2,0.1,#cc79a7,#0072b2,,-0.2,0.1,#4A4A4A,#4A4A4A,,-0.2,-0.1,#f0e442,#f0e442,,A1N04FX8AHYPBU,001,2020-12-11_18h04.11.156,change-localization,2020.1.2,Win32,60,,,0,31,31,31,1,,
,,0.071614583,0.063802083,1,0,0,0.186125,probe4,"[0,-0.2]",,,,,,33,probe3,0.05,0.05,-0.1,-0.1,#0072b2,#0072b2,,0.1,0.1,#cc79a7,#cc79a7,,-0.1,0.1,#f0e442,#009e73,,0,-0.2,#56b4e9,#56b4e9,,0.1,0.2,#e69f00,#e69f00,,A1N04FX8AHYPBU,001,2020-12-11_18h04.11.156,change-localization,2020.1.2,Win32,60,,,0,32,32,32,1,,
,,0.19140625,0.10546875,1,0,0,0.852465,probe1,"[0.2,0.1]",,,,,,34,probe5,0.05,0.05,0.2,0.1,#e69f00,#e69f00,,-0.2,0.1,#cc79a7,#cc79a7,,0.1,-0.2,#0072b2,#0072b2,,0.2,-0.2,#d55e00,#d55e00,,-0.2,0,#56b4e9,#009e73,,A1N04FX8AHYPBU,001,2020-12-11_18h04.11.156,change-localization,2020.1.2,Win32,60,,,0,33,33,33,1,,
,,0.07421875,-0.005208333,1,0,0,0.71242,probe3,"[0.1,-0.1]",,,,,,35,probe2,0.05,0.05,0.2,0,#56b4e9,#56b4e9,,0.2,-0.1,#e69f00,#009e73,,0.1,-0.1,#f0e442,#f0e442,,0,0.2,#d55e00,#d55e00,,0.1,0.2,#cc79a7,#cc79a7,,A1N04FX8AHYPBU,001,2020-12-11_18h04.11.156,change-localization,2020.1.2,Win32,60,,,0,34,34,34,1,,
,,0.088541667,0.006510417,1,0,0,1.3419,probe5,"[0.1,0]",,,,,,36,probe3,0.05,0.05,0,0.1,#4A4A4A,#4A4A4A,,0.2,0.1,#009e73,#009e73,,-0.2,-0.1,#f0e442,#56b4e9,,-0.1,-0.1,#e69f00,#e69f00,,0.1,0,#0072b2,#0072b2,,A1N04FX8AHYPBU,001,2020-12-11_18h04.11.156,change-localization,2020.1.2,Win32,60,,,0,35,35,35,1,,
,,-0.153645833,-0.005208333,1,0,0,0.02617,probe3,"[-0.2,0]",,,,,,37,probe5,0.05,0.05,-0.2,0.1,#e69f00,#e69f00,,0.1,0.1,#0072b2,#0072b2,,-0.2,0,#d55e00,#d55e00,,-0.1,0.2,#cc79a7,#cc79a7,,0.1,0,#009e73,#f0e442,,A1N04FX8AHYPBU,001,2020-12-11_18h04.11.156,change-localization,2020.1.2,Win32,60,,,0,36,36,36,1,,
,,-0.1875,-0.001302083,1,0,0,1.824035,probe3,"[0.1,-0.1]",,,,,,38,probe4,0.05,0.05,0.2,-0.2,#4A4A4A,#4A4A4A,,0.2,0,#0072b2,#0072b2,,0.1,-0.1,#e69f00,#e69f00,,0.1,0,#d55e00,#cc79a7,,0,-0.1,#009e73,#009e73,,A1N04FX8AHYPBU,001,2020-12-11_18h04.11.156,change-localization,2020.1.2,Win32,60,,,0,37,37,37,1,,
,,0.11328125,-0.087239583,1,0,0,0.140405,probe1,"[0.1,-0.1]",,,,,,39,probe4,0.05,0.05,0.1,-0.1,#e69f00,#e69f00,,-0.2,-0.1,#cc79a7,#cc79a7,,0.2,0.1,#d55e00,#d55e00,,-0.2,0.2,#56b4e9,#f0e442,,0,-0.1,#0072b2,#0072b2,,A1N04FX8AHYPBU,001,2020-12-11_18h04.11.156,change-localization,2020.1.2,Win32,60,,,0,38,38,38,1,,
,,0.11328125,-0.087239583,1,0,0,0.189515,probe5,"[0.1,-0.1]",,,,,,40,probe1,0.05,0.05,-0.2,0.1,#4A4A4A,#d55e00,,0.2,0.2,#009e73,#009e73,,-0.1,-0.1,#cc79a7,#cc79a7,,0.2,-0.2,#e69f00,#e69f00,,0.1,-0.1,#56b4e9,#56b4e9,,A1N04FX8AHYPBU,001,2020-12-11_18h04.11.156,change-localization,2020.1.2,Win32,60,,,0,39,39,39,1,,
,,0.010416667,-0.196614583,1,0,0,0.96312,probe5,"[0,-0.2]",,,,,,41,probe4,0.05,0.05,0.2,0.1,#009e73,#009e73,,-0.2,-0.1,#0072b2,#0072b2,,-0.2,-0.2,#56b4e9,#56b4e9,,-0.1,0,#f0e442,#cc79a7,,0,-0.2,#d55e00,#d55e00,,A1N04FX8AHYPBU,001,2020-12-11_18h04.11.156,change-localization,2020.1.2,Win32,60,,,0,40,40,40,1,,
,,0.015625,-0.197916667,1,0,0,0.52626,probe4,"[0,-0.2]",,,,,,42,probe4,0.05,0.05,-0.1,-0.2,#009e73,#009e73,,-0.1,0.1,#cc79a7,#cc79a7,,0.1,0.1,#56b4e9,#56b4e9,,0,-0.2,#e69f00,#d55e00,,-0.1,0,#0072b2,#0072b2,,A1N04FX8AHYPBU,001,2020-12-11_18h04.11.156,change-localization,2020.1.2,Win32,60,,,0,41,41,41,1,,
,,-0.001302083,-0.204427083,1,0,0,5.62908,probe1,"[0.2,-0.1]",,,,,,43,probe1,0.05,0.05,0.2,-0.1,#e69f00,#009e73,,0.1,0,#cc79a7,#cc79a7,,-0.2,-0.2,#f0e442,#f0e442,,0.2,-0.2,#56b4e9,#56b4e9,,-0.2,0.1,#4A4A4A,#4A4A4A,,A1N04FX8AHYPBU,001,2020-12-11_18h04.11.156,change-localization,2020.1.2,Win32,60,,,0,42,42,42,1,,
,,0.092447917,-0.02734375,1,0,0,0.17758,probe5,"[-0.1,-0.1]",,,,,,44,probe1,0.05,0.05,-0.1,0.2,#56b4e9,#e69f00,,0.2,0.1,#4A4A4A,#4A4A4A,,0.1,0,#cc79a7,#cc79a7,,0.1,0.2,#f0e442,#f0e442,,-0.1,-0.1,#d55e00,#d55e00,,A1N04FX8AHYPBU,001,2020-12-11_18h04.11.156,change-localization,2020.1.2,Win32,60,,,0,43,43,43,1,,
,,-0.005208333,-0.08984375,1,0,0,0.7785,probe5,"[0,-0.2]",,,,,,45,probe3,0.05,0.05,-0.2,0.2,#0072b2,#0072b2,,-0.2,-0.1,#56b4e9,#56b4e9,,-0.1,0.1,#f0e442,#e69f00,,-0.1,0.2,#d55e00,#d55e00,,0,-0.2,#cc79a7,#cc79a7,,A1N04FX8AHYPBU,001,2020-12-11_18h04.11.156,change-localization,2020.1.2,Win32,60,,,0,44,44,44,1,,
,,0.03125,-0.067708333,1,0,0,0.76661,probe5,"[0.2,0]",,,,,,46,probe5,0.05,0.05,0.2,0.1,#0072b2,#0072b2,,0.1,0.2,#f0e442,#f0e442,,0.2,-0.2,#009e73,#009e73,,0.2,0.2,#4A4A4A,#4A4A4A,,0.2,0,#cc79a7,#e69f00,,A1N04FX8AHYPBU,001,2020-12-11_18h04.11.156,change-localization,2020.1.2,Win32,60,,,0,45,45,45,1,,
,,-0.01953125,0.03125,1,0,0,1.066395,probe5,"[-0.1,0.1]",,,,,,47,probe3,0.05,0.05,0,-0.1,#009e73,#009e73,,-0.2,0.2,#f0e442,#f0e442,,0.2,0.2,#56b4e9,#cc79a7,,-0.1,0.2,#4A4A4A,#4A4A4A,,-0.1,0.1,#e69f00,#e69f00,,A1N04FX8AHYPBU,001,2020-12-11_18h04.11.156,change-localization,2020.1.2,Win32,60,,,0,46,46,46,1,,
,,-0.1015625,0.096354167,1,0,0,0.709405,probe2,"[-0.1,0.1]",,,,,,48,probe4,0.05,0.05,0.2,-0.2,#cc79a7,#cc79a7,,-0.1,0.1,#009e73,#009e73,,0.1,-0.2,#f0e442,#f0e442,,-0.2,-0.1,#d55e00,#0072b2,,-0.1,0,#56b4e9,#56b4e9,,A1N04FX8AHYPBU,001,2020-12-11_18h04.11.156,change-localization,2020.1.2,Win32,60,,,0,47,47,47,1,,
,,-0.197916667,-0.022135417,1,0,0,1.186815,probe2,"[-0.2,0]",,,,,,49,probe2,0.05,0.05,0,-0.2,#e69f00,#e69f00,,-0.2,0,#cc79a7,#0072b2,,-0.1,0.2,#f0e442,#f0e442,,0.1,0.2,#4A4A4A,#4A4A4A,,-0.1,-0.1,#56b4e9,#56b4e9,,A1N04FX8AHYPBU,001,2020-12-11_18h04.11.156,change-localization,2020.1.2,Win32,60,,,0,48,48,48,1,,
,,-0.102864583,0.001302083,1,0,0,2.40299,probe4,"[-0.1,0]",,,,,,50,probe4,0.05,0.05,0.2,0.1,#0072b2,#0072b2,,0.1,0.1,#cc79a7,#cc79a7,,0.1,-0.2,#56b4e9,#56b4e9,,-0.1,0,#009e73,#e69f00,,0,0.1,#d55e00,#d55e00,,A1N04FX8AHYPBU,001,2020-12-11_18h04.11.156,change-localization,2020.1.2,Win32,60,,,0,49,49,49,1,,
,,,,,,,,,,,,,,,,,,,,,,,,,,,,,,,,,,,,,,,,,,,,A1N04FX8AHYPBU,001,2020-12-11_18h04.11.156,change-localization,2020.1.2,Win32,60,,,,,,,,c,5.52782
