key_resp.keys,key_resp.rt,mouse.x,mouse.y,mouse.leftButton,mouse.midButton,mouse.rightButton,mouse.time,mouse.clicked_name,mouse.clicked_pos,training.thisRepN,training.thisTrialN,training.thisN,training.thisIndex,training.ran,trial,answer,height,width,x1,y1,stim_color1,probe_color1,copy_color1,x2,y2,stim_color2,probe_color2,copy_color2,x3,y3,stim_color3,probe_color3,copy_color3,x4,y4,stim_color4,probe_color4,copy_color4,x5,y5,stim_color5,probe_color5,copy_color5,participant,session,date,expName,psychopyVersion,OS,frameRate,key_resp_2.keys,key_resp_2.rt,trials.thisRepN,trials.thisTrialN,trials.thisN,trials.thisIndex,trials.ran,completion_keys.keys,completion_keys.rt
c,28.691745,0.197916667,0.020833333,1,0,0,1.088845,probe5,"[0.2,0]",0,0,0,0,1,1,probe4,0.05,0.05,0.1,0.2,#0072b2,#0072b2,#0072b2,0.1,-0.1,#e69f00,#e69f00,#e69f00,-0.1,-0.2,#cc79a7,#cc79a7,#cc79a7,0.2,-0.1,#4A4A4A,#f0e442,#FFFFFF,0.2,0,#009e73,#009e73,#009e73,A1O0NWFU376NUJ,001,2020-12-11_22h07.38.317,change-localization,2020.1.2,Win32,60,,,,,,,,,
,,0.1875,-0.005208333,1,0,0,1.42404,probe1,"[0.2,0]",0,1,1,1,1,2,probe1,0.05,0.05,0.2,0,#d55e00,#009e73,#FFFFFF,0.2,-0.1,#e69f00,#e69f00,#e69f00,0.1,0,#4A4A4A,#4A4A4A,#4A4A4A,-0.1,0.1,#56b4e9,#56b4e9,#56b4e9,-0.1,0,#cc79a7,#cc79a7,#cc79a7,A1O0NWFU376NUJ,001,2020-12-11_22h07.38.317,change-localization,2020.1.2,Win32,60,,,,,,,,,
,,-0.186197917,-0.205729167,1,0,0,1.617335,probe1,"[-0.2,-0.2]",0,2,2,2,1,3,probe1,0.05,0.05,-0.2,-0.2,#f0e442,#009e73,#FFFFFF,0.2,-0.1,#d55e00,#d55e00,#d55e00,-0.2,0,#4A4A4A,#4A4A4A,#4A4A4A,-0.1,-0.1,#0072b2,#0072b2,#0072b2,0,-0.1,#56b4e9,#56b4e9,#56b4e9,A1O0NWFU376NUJ,001,2020-12-11_22h07.38.317,change-localization,2020.1.2,Win32,60,,,,,,,,,
,,-0.190104167,-0.010416667,1,0,0,0.92998,probe4,"[-0.2,0]",0,3,3,3,1,4,probe1,0.05,0.05,0.2,0.2,#d55e00,#56b4e9,#FFFFFF,-0.2,0.2,#f0e442,#f0e442,#f0e442,0.2,-0.2,#0072b2,#0072b2,#0072b2,-0.2,0,#cc79a7,#cc79a7,#cc79a7,-0.2,0.1,#4A4A4A,#4A4A4A,#4A4A4A,A1O0NWFU376NUJ,001,2020-12-11_22h07.38.317,change-localization,2020.1.2,Win32,60,,,,,,,,,
,,-0.001302083,0.174479167,1,0,0,0.7488,probe2,"[0,0.2]",0,4,4,4,1,5,probe3,0.05,0.05,-0.2,0.1,#56b4e9,#56b4e9,#56b4e9,0,0.2,#009e73,#009e73,#009e73,0,0.1,#0072b2,#cc79a7,#FFFFFF,-0.1,-0.1,#4A4A4A,#4A4A4A,#4A4A4A,0.2,0,#f0e442,#f0e442,#f0e442,A1O0NWFU376NUJ,001,2020-12-11_22h07.38.317,change-localization,2020.1.2,Win32,60,,,,,,,,,
,,0,0.084635417,1,0,0,0.99355,probe2,"[0,0.1]",0,5,5,5,1,6,probe5,0.05,0.05,-0.1,0.1,#f0e442,#f0e442,#f0e442,0,0.1,#009e73,#009e73,#009e73,-0.2,0,#4A4A4A,#4A4A4A,#4A4A4A,0,-0.2,#d55e00,#d55e00,#d55e00,0.1,0,#cc79a7,#0072b2,#FFFFFF,A1O0NWFU376NUJ,001,2020-12-11_22h07.38.317,change-localization,2020.1.2,Win32,60,,,,,,,,,
,,-0.184895833,0.18359375,1,0,0,1.227545,probe4,"[-0.2,0.2]",0,6,6,6,1,7,probe2,0.05,0.05,-0.2,-0.2,#4A4A4A,#4A4A4A,#4A4A4A,0.1,0.2,#0072b2,#d55e00,#FFFFFF,-0.1,-0.2,#f0e442,#f0e442,#f0e442,-0.2,0.2,#009e73,#009e73,#009e73,0.2,0.2,#e69f00,#e69f00,#e69f00,A1O0NWFU376NUJ,001,2020-12-11_22h07.38.317,change-localization,2020.1.2,Win32,60,,,,,,,,,
,,0.1015625,-0.182291667,1,0,0,0.94865,probe1,"[0.1,-0.2]",0,7,7,7,1,8,probe1,0.05,0.05,0.1,-0.2,#009e73,#f0e442,#FFFFFF,-0.1,0,#d55e00,#d55e00,#d55e00,-0.1,0.1,#4A4A4A,#4A4A4A,#4A4A4A,-0.2,0,#cc79a7,#cc79a7,#cc79a7,0.2,0,#e69f00,#e69f00,#e69f00,A1O0NWFU376NUJ,001,2020-12-11_22h07.38.317,change-localization,2020.1.2,Win32,60,,,,,,,,,
,,0.087239583,0.083333333,1,0,0,0.985595,probe5,"[0.1,0.1]",0,8,8,8,1,9,probe1,0.05,0.05,0.1,-0.2,#0072b2,#e69f00,#FFFFFF,-0.1,0.2,#f0e442,#f0e442,#f0e442,-0.2,0.1,#d55e00,#d55e00,#d55e00,0.2,0.2,#cc79a7,#cc79a7,#cc79a7,0.1,0.1,#56b4e9,#56b4e9,#56b4e9,A1O0NWFU376NUJ,001,2020-12-11_22h07.38.317,change-localization,2020.1.2,Win32,60,,,,,,,,,
,,0.088541667,-0.200520833,1,0,0,0.9943,probe4,"[0.1,-0.2]",0,9,9,9,1,10,probe1,0.05,0.05,-0.1,-0.1,#4A4A4A,#f0e442,#FFFFFF,0,0.2,#cc79a7,#cc79a7,#cc79a7,0.2,-0.2,#e69f00,#e69f00,#e69f00,0.1,-0.2,#009e73,#009e73,#009e73,0.1,0.1,#d55e00,#d55e00,#d55e00,A1O0NWFU376NUJ,001,2020-12-11_22h07.38.317,change-localization,2020.1.2,Win32,60,,,,,,,,,
,,-0.205729167,0.1875,1,0,0,4.94806,probe1,"[-0.2,0.2]",,,,,,1,probe2,0.05,0.05,-0.2,0.2,#009e73,#009e73,,-0.1,0.2,#f0e442,#e69f00,,-0.1,0,#0072b2,#0072b2,,0,-0.2,#cc79a7,#cc79a7,,0,0.2,#d55e00,#d55e00,,A1O0NWFU376NUJ,001,2020-12-11_22h07.38.317,change-localization,2020.1.2,Win32,60,c,13.279975,0,0,0,0,1,,
,,-0.010416667,0.083333333,1,0,0,1.14285,probe1,"[0,0.1]",,,,,,2,probe5,0.05,0.05,0,0.1,#009e73,#009e73,,0.2,0.1,#4A4A4A,#4A4A4A,,-0.1,-0.1,#cc79a7,#cc79a7,,0.1,0.1,#d55e00,#d55e00,,0,-0.1,#56b4e9,#e69f00,,A1O0NWFU376NUJ,001,2020-12-11_22h07.38.317,change-localization,2020.1.2,Win32,60,,,0,1,1,1,1,,
,,-0.076822917,0.115885417,1,0,0,1.235045,probe4,"[-0.1,0.1]",,,,,,3,probe4,0.05,0.05,0.1,-0.1,#56b4e9,#56b4e9,,0.2,0,#f0e442,#f0e442,,0.2,-0.1,#e69f00,#e69f00,,-0.1,0.1,#4A4A4A,#009e73,,-0.1,0.2,#d55e00,#d55e00,,A1O0NWFU376NUJ,001,2020-12-11_22h07.38.317,change-localization,2020.1.2,Win32,60,,,0,2,2,2,1,,
,,-0.213541667,-0.005208333,1,0,0,2.156915,probe5,"[-0.2,0]",,,,,,4,probe5,0.05,0.05,0.2,0,#56b4e9,#56b4e9,,-0.2,-0.2,#cc79a7,#cc79a7,,0,0.2,#4A4A4A,#4A4A4A,,0.2,-0.2,#e69f00,#e69f00,,-0.2,0,#f0e442,#009e73,,A1O0NWFU376NUJ,001,2020-12-11_22h07.38.317,change-localization,2020.1.2,Win32,60,,,0,3,3,3,1,,
,,0.200520833,0.1796875,1,0,0,1.03667,probe2,"[0.2,0.2]",,,,,,5,probe3,0.05,0.05,-0.2,0.1,#4A4A4A,#4A4A4A,,0.2,0.2,#009e73,#009e73,,-0.1,-0.1,#0072b2,#f0e442,,0.2,0,#cc79a7,#cc79a7,,0.1,0.1,#e69f00,#e69f00,,A1O0NWFU376NUJ,001,2020-12-11_22h07.38.317,change-localization,2020.1.2,Win32,60,,,0,4,4,4,1,,
,,-0.182291667,-0.2109375,1,0,0,1.038535,probe5,"[-0.2,-0.2]",,,,,,6,probe4,0.05,0.05,-0.1,0.1,#d55e00,#d55e00,,-0.2,0.2,#0072b2,#0072b2,,0,-0.1,#e69f00,#e69f00,,0,0.2,#56b4e9,#4A4A4A,,-0.2,-0.2,#009e73,#009e73,,A1O0NWFU376NUJ,001,2020-12-11_22h07.38.317,change-localization,2020.1.2,Win32,60,,,0,5,5,5,1,,
,,-0.186197917,0.178385417,1,0,0,1.18427,probe3,"[-0.2,0.2]",,,,,,7,probe4,0.05,0.05,0.2,-0.1,#56b4e9,#56b4e9,,-0.1,-0.1,#e69f00,#e69f00,,-0.2,0.2,#009e73,#009e73,,0.2,0.2,#cc79a7,#4A4A4A,,0.2,-0.2,#d55e00,#d55e00,,A1O0NWFU376NUJ,001,2020-12-11_22h07.38.317,change-localization,2020.1.2,Win32,60,,,0,6,6,6,1,,
,,0.2109375,-0.135416667,1,0,0,1.67407,probe5,"[0.2,-0.1]",,,,,,8,probe4,0.05,0.05,-0.2,0.1,#e69f00,#e69f00,,0.1,0.2,#cc79a7,#cc79a7,,0.2,0.1,#4A4A4A,#4A4A4A,,-0.2,0.2,#56b4e9,#d55e00,,0.2,-0.1,#0072b2,#0072b2,,A1O0NWFU376NUJ,001,2020-12-11_22h07.38.317,change-localization,2020.1.2,Win32,60,,,0,7,7,7,1,,
,,-0.227864583,0.08984375,1,0,0,1.061675,probe3,"[-0.2,0.1]",,,,,,9,probe5,0.05,0.05,-0.1,0,#4A4A4A,#4A4A4A,,0.1,0.1,#56b4e9,#56b4e9,,-0.2,0.1,#009e73,#009e73,,0.2,0.1,#cc79a7,#cc79a7,,0.2,0.2,#d55e00,#f0e442,,A1O0NWFU376NUJ,001,2020-12-11_22h07.38.317,change-localization,2020.1.2,Win32,60,,,0,8,8,8,1,,
,,0.102864583,-0.1015625,1,0,0,1.116155,probe2,"[0.1,-0.1]",,,,,,10,probe3,0.05,0.05,0.2,0.2,#f0e442,#f0e442,,0.1,-0.1,#e69f00,#e69f00,,0,0.1,#cc79a7,#4A4A4A,,-0.2,0.1,#56b4e9,#56b4e9,,0.2,0,#0072b2,#0072b2,,A1O0NWFU376NUJ,001,2020-12-11_22h07.38.317,change-localization,2020.1.2,Win32,60,,,0,9,9,9,1,,
,,0.009114583,-0.192708333,1,0,0,1.08994,probe4,"[0,-0.2]",,,,,,11,probe5,0.05,0.05,0.2,0.2,#4A4A4A,#4A4A4A,,0.1,0.2,#0072b2,#0072b2,,0.1,-0.1,#cc79a7,#cc79a7,,0,-0.2,#009e73,#009e73,,0.1,-0.2,#f0e442,#d55e00,,A1O0NWFU376NUJ,001,2020-12-11_22h07.38.317,change-localization,2020.1.2,Win32,60,,,0,10,10,10,1,,
,,-0.079427083,-0.088541667,1,0,0,0.77091,probe1,"[-0.1,-0.1]",,,,,,12,probe4,0.05,0.05,-0.1,-0.1,#009e73,#009e73,,-0.1,0,#56b4e9,#56b4e9,,-0.1,-0.2,#0072b2,#0072b2,,0.1,0,#d55e00,#f0e442,,0,-0.1,#cc79a7,#cc79a7,,A1O0NWFU376NUJ,001,2020-12-11_22h07.38.317,change-localization,2020.1.2,Win32,60,,,0,11,11,11,1,,
,,0.114583333,0.098958333,1,0,0,0.961435,probe3,"[0.1,0.1]",,,,,,13,probe4,0.05,0.05,0,-0.1,#f0e442,#f0e442,,0.1,-0.1,#d55e00,#d55e00,,0.1,0.1,#0072b2,#0072b2,,-0.2,0.2,#cc79a7,#4A4A4A,,0.1,0.2,#009e73,#009e73,,A1O0NWFU376NUJ,001,2020-12-11_22h07.38.317,change-localization,2020.1.2,Win32,60,,,0,12,12,12,1,,
,,0.078125,0.091145833,1,0,0,0.92603,probe4,"[0.1,0.1]",,,,,,14,probe5,0.05,0.05,0,0.2,#cc79a7,#cc79a7,,0,-0.1,#4A4A4A,#4A4A4A,,-0.2,0,#56b4e9,#56b4e9,,0.1,0.1,#0072b2,#0072b2,,0.1,0.2,#009e73,#e69f00,,A1O0NWFU376NUJ,001,2020-12-11_22h07.38.317,change-localization,2020.1.2,Win32,60,,,0,13,13,13,1,,
,,0.115885417,-0.106770833,1,0,0,1.243695,probe4,"[0.1,-0.1]",,,,,,15,probe3,0.05,0.05,0.2,0.2,#cc79a7,#cc79a7,,0,0.2,#56b4e9,#56b4e9,,0.2,0.1,#d55e00,#4A4A4A,,0.1,-0.1,#f0e442,#f0e442,,0.2,-0.1,#0072b2,#0072b2,,A1O0NWFU376NUJ,001,2020-12-11_22h07.38.317,change-localization,2020.1.2,Win32,60,,,0,14,14,14,1,,
,,0.118489583,0.098958333,1,0,0,2.169765,probe3,"[0.1,0.1]",,,,,,16,probe3,0.05,0.05,-0.2,-0.1,#f0e442,#f0e442,,-0.2,0.2,#d55e00,#d55e00,,0.1,0.1,#009e73,#4A4A4A,,-0.2,0.1,#56b4e9,#56b4e9,,0,-0.1,#cc79a7,#cc79a7,,A1O0NWFU376NUJ,001,2020-12-11_22h07.38.317,change-localization,2020.1.2,Win32,60,,,0,15,15,15,1,,
,,-0.09375,-0.088541667,1,0,0,0.779655,probe5,"[-0.1,-0.1]",,,,,,17,probe3,0.05,0.05,0.2,-0.1,#cc79a7,#cc79a7,,0,-0.2,#0072b2,#0072b2,,0,0.1,#4A4A4A,#e69f00,,-0.2,-0.1,#f0e442,#f0e442,,-0.1,-0.1,#009e73,#009e73,,A1O0NWFU376NUJ,001,2020-12-11_22h07.38.317,change-localization,2020.1.2,Win32,60,,,0,16,16,16,1,,
,,0.173177083,-0.006510417,1,0,0,1.295785,probe3,"[0.2,0]",,,,,,18,probe3,0.05,0.05,-0.1,0.1,#d55e00,#d55e00,,-0.1,0.2,#e69f00,#e69f00,,0.2,0,#009e73,#0072b2,,0.1,-0.1,#cc79a7,#cc79a7,,-0.2,0.2,#4A4A4A,#4A4A4A,,A1O0NWFU376NUJ,001,2020-12-11_22h07.38.317,change-localization,2020.1.2,Win32,60,,,0,17,17,17,1,,
,,-0.1015625,0.087239583,1,0,0,0.767935,probe3,"[-0.1,0.1]",,,,,,19,probe3,0.05,0.05,-0.1,0.2,#0072b2,#0072b2,,0,-0.1,#4A4A4A,#4A4A4A,,-0.1,0.1,#e69f00,#009e73,,0.2,0.1,#d55e00,#d55e00,,-0.2,0.1,#cc79a7,#cc79a7,,A1O0NWFU376NUJ,001,2020-12-11_22h07.38.317,change-localization,2020.1.2,Win32,60,,,0,18,18,18,1,,
,,-0.0859375,0.170572917,1,0,0,1.08363,probe2,"[-0.1,0.2]",,,,,,20,probe4,0.05,0.05,0.2,0,#56b4e9,#56b4e9,,-0.1,0.2,#009e73,#009e73,,-0.2,-0.2,#e69f00,#e69f00,,0,-0.1,#f0e442,#cc79a7,,-0.1,0,#4A4A4A,#4A4A4A,,A1O0NWFU376NUJ,001,2020-12-11_22h07.38.317,change-localization,2020.1.2,Win32,60,,,0,19,19,19,1,,
,,-0.0859375,0.186197917,1,0,0,0.705065,probe2,"[-0.1,0.2]",,,,,,21,probe3,0.05,0.05,-0.1,0.1,#0072b2,#0072b2,,-0.1,0.2,#009e73,#009e73,,0.2,0,#56b4e9,#4A4A4A,,-0.2,0.2,#f0e442,#f0e442,,0.2,0.1,#d55e00,#d55e00,,A1O0NWFU376NUJ,001,2020-12-11_22h07.38.317,change-localization,2020.1.2,Win32,60,,,0,20,20,20,1,,
,,-0.216145833,-0.09375,1,0,0,1.45398,probe4,"[-0.2,-0.1]",,,,,,22,probe4,0.05,0.05,0.2,-0.1,#d55e00,#d55e00,,0.2,0,#56b4e9,#56b4e9,,0.1,-0.2,#cc79a7,#cc79a7,,-0.2,-0.1,#4A4A4A,#009e73,,0,-0.2,#e69f00,#e69f00,,A1O0NWFU376NUJ,001,2020-12-11_22h07.38.317,change-localization,2020.1.2,Win32,60,,,0,21,21,21,1,,
,,-0.184895833,-0.21484375,1,0,0,1.12297,probe4,"[-0.2,-0.2]",,,,,,23,probe4,0.05,0.05,0.1,0.1,#56b4e9,#56b4e9,,-0.2,-0.1,#0072b2,#0072b2,,0.2,0,#d55e00,#d55e00,,-0.2,-0.2,#cc79a7,#009e73,,0.1,-0.2,#4A4A4A,#4A4A4A,,A1O0NWFU376NUJ,001,2020-12-11_22h07.38.317,change-localization,2020.1.2,Win32,60,,,0,22,22,22,1,,
,,0.084635417,-0.1171875,1,0,0,4.35507,probe3,"[0.1,-0.1]",,,,,,24,probe2,0.05,0.05,-0.1,-0.2,#4A4A4A,#4A4A4A,,0.2,0.2,#d55e00,#e69f00,,0.1,-0.1,#f0e442,#f0e442,,0.1,0.1,#56b4e9,#56b4e9,,-0.2,0.1,#cc79a7,#cc79a7,,A1O0NWFU376NUJ,001,2020-12-11_22h07.38.317,change-localization,2020.1.2,Win32,60,,,0,23,23,23,1,,
,,-0.213541667,0.092447917,1,0,0,1.58781,probe5,"[-0.2,0.1]",,,,,,25,probe3,0.05,0.05,-0.2,-0.2,#f0e442,#f0e442,,-0.1,-0.1,#4A4A4A,#4A4A4A,,0.2,0,#d55e00,#cc79a7,,0,0.2,#0072b2,#0072b2,,-0.2,0.1,#009e73,#009e73,,A1O0NWFU376NUJ,001,2020-12-11_22h07.38.317,change-localization,2020.1.2,Win32,60,,,0,24,24,24,1,,
,,0.115885417,-0.083333333,1,0,0,1.88452,probe1,"[0.1,-0.1]",,,,,,26,probe3,0.05,0.05,0.1,-0.1,#e69f00,#e69f00,,-0.2,0,#56b4e9,#56b4e9,,-0.1,-0.2,#009e73,#d55e00,,-0.2,-0.1,#4A4A4A,#4A4A4A,,0.1,0,#cc79a7,#cc79a7,,A1O0NWFU376NUJ,001,2020-12-11_22h07.38.317,change-localization,2020.1.2,Win32,60,,,0,25,25,25,1,,
,,-0.080729167,-0.200520833,1,0,0,1.08187,probe1,"[-0.1,-0.2]",,,,,,27,probe5,0.05,0.05,-0.1,-0.2,#009e73,#009e73,,0.2,0,#cc79a7,#cc79a7,,-0.1,-0.1,#e69f00,#e69f00,,0.1,0.1,#d55e00,#d55e00,,-0.2,-0.1,#4A4A4A,#0072b2,,A1O0NWFU376NUJ,001,2020-12-11_22h07.38.317,change-localization,2020.1.2,Win32,60,,,0,26,26,26,1,,
,,-0.078125,0.192708333,1,0,0,0.86388,probe1,"[-0.1,0.2]",,,,,,28,probe5,0.05,0.05,-0.1,0.2,#009e73,#009e73,,-0.2,0.1,#56b4e9,#56b4e9,,0,-0.2,#d55e00,#d55e00,,0.1,0,#0072b2,#0072b2,,0.1,0.1,#f0e442,#e69f00,,A1O0NWFU376NUJ,001,2020-12-11_22h07.38.317,change-localization,2020.1.2,Win32,60,,,0,27,27,27,1,,
,,-0.102864583,-0.1015625,1,0,0,1.18645,probe3,"[-0.1,-0.1]",,,,,,29,probe1,0.05,0.05,0.1,-0.1,#4A4A4A,#56b4e9,,-0.2,0.2,#e69f00,#e69f00,,-0.1,-0.1,#f0e442,#f0e442,,0.1,0.2,#0072b2,#0072b2,,-0.1,-0.2,#cc79a7,#cc79a7,,A1O0NWFU376NUJ,001,2020-12-11_22h07.38.317,change-localization,2020.1.2,Win32,60,,,0,28,28,28,1,,
,,-0.182291667,-0.0078125,1,0,0,1.11373,probe5,"[-0.2,0]",,,,,,30,probe2,0.05,0.05,0.1,0.2,#f0e442,#f0e442,,-0.1,-0.2,#d55e00,#4A4A4A,,0,-0.2,#cc79a7,#cc79a7,,0.1,-0.2,#0072b2,#0072b2,,-0.2,0,#009e73,#009e73,,A1O0NWFU376NUJ,001,2020-12-11_22h07.38.317,change-localization,2020.1.2,Win32,60,,,0,29,29,29,1,,
,,0.088541667,0.177083333,1,0,0,2.57026,probe3,"[0.1,0.2]",,,,,,31,probe5,0.05,0.05,0,-0.2,#d55e00,#d55e00,,0.1,0,#e69f00,#e69f00,,0.1,0.2,#f0e442,#f0e442,,-0.2,-0.1,#cc79a7,#cc79a7,,-0.1,-0.1,#009e73,#4A4A4A,,A1O0NWFU376NUJ,001,2020-12-11_22h07.38.317,change-localization,2020.1.2,Win32,60,,,0,30,30,30,1,,
,,0.208333333,0.1953125,1,0,0,1.58677,probe1,"[0.2,0.2]",,,,,,32,probe3,0.05,0.05,0.2,0.2,#56b4e9,#56b4e9,,-0.1,-0.1,#009e73,#009e73,,0.2,0.1,#cc79a7,#0072b2,,-0.2,0.1,#4A4A4A,#4A4A4A,,-0.2,-0.1,#f0e442,#f0e442,,A1O0NWFU376NUJ,001,2020-12-11_22h07.38.317,change-localization,2020.1.2,Win32,60,,,0,31,31,31,1,,
,,-0.079427083,-0.10546875,1,0,0,2.33006,probe1,"[-0.1,-0.1]",,,,,,33,probe3,0.05,0.05,-0.1,-0.1,#0072b2,#0072b2,,0.1,0.1,#cc79a7,#cc79a7,,-0.1,0.1,#f0e442,#009e73,,0,-0.2,#56b4e9,#56b4e9,,0.1,0.2,#e69f00,#e69f00,,A1O0NWFU376NUJ,001,2020-12-11_22h07.38.317,change-localization,2020.1.2,Win32,60,,,0,32,32,32,1,,
,,-0.212239583,0.096354167,1,0,0,3.283715,probe2,"[-0.2,0.1]",,,,,,34,probe5,0.05,0.05,0.2,0.1,#e69f00,#e69f00,,-0.2,0.1,#cc79a7,#cc79a7,,0.1,-0.2,#0072b2,#0072b2,,0.2,-0.2,#d55e00,#d55e00,,-0.2,0,#56b4e9,#009e73,,A1O0NWFU376NUJ,001,2020-12-11_22h07.38.317,change-localization,2020.1.2,Win32,60,,,0,33,33,33,1,,
,,0.20703125,-0.123697917,1,0,0,1.961735,probe2,"[0.2,-0.1]",,,,,,35,probe2,0.05,0.05,0.2,0,#56b4e9,#56b4e9,,0.2,-0.1,#e69f00,#009e73,,0.1,-0.1,#f0e442,#f0e442,,0,0.2,#d55e00,#d55e00,,0.1,0.2,#cc79a7,#cc79a7,,A1O0NWFU376NUJ,001,2020-12-11_22h07.38.317,change-localization,2020.1.2,Win32,60,,,0,34,34,34,1,,
,,-0.221354167,-0.100260417,1,0,0,2.09732,probe3,"[-0.2,-0.1]",,,,,,36,probe3,0.05,0.05,0,0.1,#4A4A4A,#4A4A4A,,0.2,0.1,#009e73,#009e73,,-0.2,-0.1,#f0e442,#56b4e9,,-0.1,-0.1,#e69f00,#e69f00,,0.1,0,#0072b2,#0072b2,,A1O0NWFU376NUJ,001,2020-12-11_22h07.38.317,change-localization,2020.1.2,Win32,60,,,0,35,35,35,1,,
,,0.10546875,0,1,0,0,1.256735,probe5,"[0.1,0]",,,,,,37,probe5,0.05,0.05,-0.2,0.1,#e69f00,#e69f00,,0.1,0.1,#0072b2,#0072b2,,-0.2,0,#d55e00,#d55e00,,-0.1,0.2,#cc79a7,#cc79a7,,0.1,0,#009e73,#f0e442,,A1O0NWFU376NUJ,001,2020-12-11_22h07.38.317,change-localization,2020.1.2,Win32,60,,,0,36,36,36,1,,
,,0.1171875,-0.109375,1,0,0,2.11974,probe3,"[0.1,-0.1]",,,,,,38,probe4,0.05,0.05,0.2,-0.2,#4A4A4A,#4A4A4A,,0.2,0,#0072b2,#0072b2,,0.1,-0.1,#e69f00,#e69f00,,0.1,0,#d55e00,#cc79a7,,0,-0.1,#009e73,#009e73,,A1O0NWFU376NUJ,001,2020-12-11_22h07.38.317,change-localization,2020.1.2,Win32,60,,,0,37,37,37,1,,
,,0.192708333,0.08203125,1,0,0,1.928055,probe3,"[0.2,0.1]",,,,,,39,probe4,0.05,0.05,0.1,-0.1,#e69f00,#e69f00,,-0.2,-0.1,#cc79a7,#cc79a7,,0.2,0.1,#d55e00,#d55e00,,-0.2,0.2,#56b4e9,#f0e442,,0,-0.1,#0072b2,#0072b2,,A1O0NWFU376NUJ,001,2020-12-11_22h07.38.317,change-localization,2020.1.2,Win32,60,,,0,38,38,38,1,,
,,0.17578125,0.186197917,1,0,0,2.750955,probe2,"[0.2,0.2]",,,,,,40,probe1,0.05,0.05,-0.2,0.1,#4A4A4A,#d55e00,,0.2,0.2,#009e73,#009e73,,-0.1,-0.1,#cc79a7,#cc79a7,,0.2,-0.2,#e69f00,#e69f00,,0.1,-0.1,#56b4e9,#56b4e9,,A1O0NWFU376NUJ,001,2020-12-11_22h07.38.317,change-localization,2020.1.2,Win32,60,,,0,39,39,39,1,,
,,-0.09375,-0.014322917,1,0,0,1.918745,probe4,"[-0.1,0]",,,,,,41,probe4,0.05,0.05,0.2,0.1,#009e73,#009e73,,-0.2,-0.1,#0072b2,#0072b2,,-0.2,-0.2,#56b4e9,#56b4e9,,-0.1,0,#f0e442,#cc79a7,,0,-0.2,#d55e00,#d55e00,,A1O0NWFU376NUJ,001,2020-12-11_22h07.38.317,change-localization,2020.1.2,Win32,60,,,0,40,40,40,1,,
,,0.0078125,-0.216145833,1,0,0,2.457565,probe4,"[0,-0.2]",,,,,,42,probe4,0.05,0.05,-0.1,-0.2,#009e73,#009e73,,-0.1,0.1,#cc79a7,#cc79a7,,0.1,0.1,#56b4e9,#56b4e9,,0,-0.2,#e69f00,#d55e00,,-0.1,0,#0072b2,#0072b2,,A1O0NWFU376NUJ,001,2020-12-11_22h07.38.317,change-localization,2020.1.2,Win32,60,,,0,41,41,41,1,,
,,0.2128,-0.1112,1,0,0,68.97936,probe1,"[0.2,-0.1]",,,,,,43,probe1,0.05,0.05,0.2,-0.1,#e69f00,#009e73,,0.1,0,#cc79a7,#cc79a7,,-0.2,-0.2,#f0e442,#f0e442,,0.2,-0.2,#56b4e9,#56b4e9,,-0.2,0.1,#4A4A4A,#4A4A4A,,A1O0NWFU376NUJ,001,2020-12-11_22h07.38.317,change-localization,2020.1.2,Win32,60,,,0,42,42,42,1,,
,,0.100260417,-0.01953125,1,0,0,5.77317,probe3,"[0.1,0]",,,,,,44,probe1,0.05,0.05,-0.1,0.2,#56b4e9,#e69f00,,0.2,0.1,#4A4A4A,#4A4A4A,,0.1,0,#cc79a7,#cc79a7,,0.1,0.2,#f0e442,#f0e442,,-0.1,-0.1,#d55e00,#d55e00,,A1O0NWFU376NUJ,001,2020-12-11_22h07.38.317,change-localization,2020.1.2,Win32,60,,,0,43,43,43,1,,
,,-0.10546875,0.1875,1,0,0,2.33543,probe4,"[-0.1,0.2]",,,,,,45,probe3,0.05,0.05,-0.2,0.2,#0072b2,#0072b2,,-0.2,-0.1,#56b4e9,#56b4e9,,-0.1,0.1,#f0e442,#e69f00,,-0.1,0.2,#d55e00,#d55e00,,0,-0.2,#cc79a7,#cc79a7,,A1O0NWFU376NUJ,001,2020-12-11_22h07.38.317,change-localization,2020.1.2,Win32,60,,,0,44,44,44,1,,
,,0.213541667,-0.208333333,1,0,0,1.446875,probe3,"[0.2,-0.2]",,,,,,46,probe5,0.05,0.05,0.2,0.1,#0072b2,#0072b2,,0.1,0.2,#f0e442,#f0e442,,0.2,-0.2,#009e73,#009e73,,0.2,0.2,#4A4A4A,#4A4A4A,,0.2,0,#cc79a7,#e69f00,,A1O0NWFU376NUJ,001,2020-12-11_22h07.38.317,change-localization,2020.1.2,Win32,60,,,0,45,45,45,1,,
,,0.0078125,-0.106770833,1,0,0,0.87143,probe1,"[0,-0.1]",,,,,,47,probe3,0.05,0.05,0,-0.1,#009e73,#009e73,,-0.2,0.2,#f0e442,#f0e442,,0.2,0.2,#56b4e9,#cc79a7,,-0.1,0.2,#4A4A4A,#4A4A4A,,-0.1,0.1,#e69f00,#e69f00,,A1O0NWFU376NUJ,001,2020-12-11_22h07.38.317,change-localization,2020.1.2,Win32,60,,,0,46,46,46,1,,
,,-0.080729167,0.080729167,1,0,0,1.050265,probe2,"[-0.1,0.1]",,,,,,48,probe4,0.05,0.05,0.2,-0.2,#cc79a7,#cc79a7,,-0.1,0.1,#009e73,#009e73,,0.1,-0.2,#f0e442,#f0e442,,-0.2,-0.1,#d55e00,#0072b2,,-0.1,0,#56b4e9,#56b4e9,,A1O0NWFU376NUJ,001,2020-12-11_22h07.38.317,change-localization,2020.1.2,Win32,60,,,0,47,47,47,1,,
,,-0.005208333,-0.184895833,1,0,0,1.499955,probe1,"[0,-0.2]",,,,,,49,probe2,0.05,0.05,0,-0.2,#e69f00,#e69f00,,-0.2,0,#cc79a7,#0072b2,,-0.1,0.2,#f0e442,#f0e442,,0.1,0.2,#4A4A4A,#4A4A4A,,-0.1,-0.1,#56b4e9,#56b4e9,,A1O0NWFU376NUJ,001,2020-12-11_22h07.38.317,change-localization,2020.1.2,Win32,60,,,0,48,48,48,1,,
,,-0.091145833,-0.00390625,1,0,0,1.733015,probe4,"[-0.1,0]",,,,,,50,probe4,0.05,0.05,0.2,0.1,#0072b2,#0072b2,,0.1,0.1,#cc79a7,#cc79a7,,0.1,-0.2,#56b4e9,#56b4e9,,-0.1,0,#009e73,#e69f00,,0,0.1,#d55e00,#d55e00,,A1O0NWFU376NUJ,001,2020-12-11_22h07.38.317,change-localization,2020.1.2,Win32,60,,,0,49,49,49,1,,
,,,,,,,,,,,,,,,,,,,,,,,,,,,,,,,,,,,,,,,,,,,,A1O0NWFU376NUJ,001,2020-12-11_22h07.38.317,change-localization,2020.1.2,Win32,60,,,,,,,,c,47.246855
