key_resp.keys,key_resp.rt,mouse.x,mouse.y,mouse.leftButton,mouse.midButton,mouse.rightButton,mouse.time,mouse.clicked_name,mouse.clicked_pos,training.thisRepN,training.thisTrialN,training.thisN,training.thisIndex,training.ran,trial,answer,height,width,x1,y1,stim_color1,probe_color1,copy_color1,x2,y2,stim_color2,probe_color2,copy_color2,x3,y3,stim_color3,probe_color3,copy_color3,x4,y4,stim_color4,probe_color4,copy_color4,x5,y5,stim_color5,probe_color5,copy_color5,participant,session,date,expName,psychopyVersion,OS,frameRate,key_resp_2.keys,key_resp_2.rt,trials.thisRepN,trials.thisTrialN,trials.thisN,trials.thisIndex,trials.ran,completion_keys.keys,completion_keys.rt
c,13.73,0.19,-0.11125,1,0,0,1.034,probe4,"[0.2,-0.1]",0,0,0,0,1,1,probe4,0.05,0.05,0.1,0.2,#0072b2,#0072b2,#0072b2,0.1,-0.1,#e69f00,#e69f00,#e69f00,-0.1,-0.2,#cc79a7,#cc79a7,#cc79a7,0.2,-0.1,#4A4A4A,#f0e442,#FFFFFF,0.2,0,#009e73,#009e73,#009e73,A1O0BGHFTMPQM0,001,2020-12-12_12h21.20.295,change-localization,2020.1.2,MacIntel,60,,,,,,,,,
,,0.195,-0.1175,1,0,0,1.451,probe2,"[0.2,-0.1]",0,1,1,1,1,2,probe1,0.05,0.05,0.2,0,#d55e00,#009e73,#FFFFFF,0.2,-0.1,#e69f00,#e69f00,#e69f00,0.1,0,#4A4A4A,#4A4A4A,#4A4A4A,-0.1,0.1,#56b4e9,#56b4e9,#56b4e9,-0.1,0,#cc79a7,#cc79a7,#cc79a7,A1O0BGHFTMPQM0,001,2020-12-12_12h21.20.295,change-localization,2020.1.2,MacIntel,60,,,,,,,,,
,,-0.1925,-0.19375,1,0,0,1.669,probe1,"[-0.2,-0.2]",0,2,2,2,1,3,probe1,0.05,0.05,-0.2,-0.2,#f0e442,#009e73,#FFFFFF,0.2,-0.1,#d55e00,#d55e00,#d55e00,-0.2,0,#4A4A4A,#4A4A4A,#4A4A4A,-0.1,-0.1,#0072b2,#0072b2,#0072b2,0,-0.1,#56b4e9,#56b4e9,#56b4e9,A1O0BGHFTMPQM0,001,2020-12-12_12h21.20.295,change-localization,2020.1.2,MacIntel,60,,,,,,,,,
,,0.2025,0.19125,1,0,0,1.585,probe1,"[0.2,0.2]",0,3,3,3,1,4,probe1,0.05,0.05,0.2,0.2,#d55e00,#56b4e9,#FFFFFF,-0.2,0.2,#f0e442,#f0e442,#f0e442,0.2,-0.2,#0072b2,#0072b2,#0072b2,-0.2,0,#cc79a7,#cc79a7,#cc79a7,-0.2,0.1,#4A4A4A,#4A4A4A,#4A4A4A,A1O0BGHFTMPQM0,001,2020-12-12_12h21.20.295,change-localization,2020.1.2,MacIntel,60,,,,,,,,,
,,0.01,0.09375,1,0,0,0.985,probe3,"[0,0.1]",0,4,4,4,1,5,probe3,0.05,0.05,-0.2,0.1,#56b4e9,#56b4e9,#56b4e9,0,0.2,#009e73,#009e73,#009e73,0,0.1,#0072b2,#cc79a7,#FFFFFF,-0.1,-0.1,#4A4A4A,#4A4A4A,#4A4A4A,0.2,0,#f0e442,#f0e442,#f0e442,A1O0BGHFTMPQM0,001,2020-12-12_12h21.20.295,change-localization,2020.1.2,MacIntel,60,,,,,,,,,
,,0.0875,-0.0025,1,0,0,1.617,probe5,"[0.1,0]",0,5,5,5,1,6,probe5,0.05,0.05,-0.1,0.1,#f0e442,#f0e442,#f0e442,0,0.1,#009e73,#009e73,#009e73,-0.2,0,#4A4A4A,#4A4A4A,#4A4A4A,0,-0.2,#d55e00,#d55e00,#d55e00,0.1,0,#cc79a7,#0072b2,#FFFFFF,A1O0BGHFTMPQM0,001,2020-12-12_12h21.20.295,change-localization,2020.1.2,MacIntel,60,,,,,,,,,
,,0.09625,0.205,1,0,0,1.068,probe2,"[0.1,0.2]",0,6,6,6,1,7,probe2,0.05,0.05,-0.2,-0.2,#4A4A4A,#4A4A4A,#4A4A4A,0.1,0.2,#0072b2,#d55e00,#FFFFFF,-0.1,-0.2,#f0e442,#f0e442,#f0e442,-0.2,0.2,#009e73,#009e73,#009e73,0.2,0.2,#e69f00,#e69f00,#e69f00,A1O0BGHFTMPQM0,001,2020-12-12_12h21.20.295,change-localization,2020.1.2,MacIntel,60,,,,,,,,,
,,0.09,-0.175,1,0,0,1.135,probe1,"[0.1,-0.2]",0,7,7,7,1,8,probe1,0.05,0.05,0.1,-0.2,#009e73,#f0e442,#FFFFFF,-0.1,0,#d55e00,#d55e00,#d55e00,-0.1,0.1,#4A4A4A,#4A4A4A,#4A4A4A,-0.2,0,#cc79a7,#cc79a7,#cc79a7,0.2,0,#e69f00,#e69f00,#e69f00,A1O0BGHFTMPQM0,001,2020-12-12_12h21.20.295,change-localization,2020.1.2,MacIntel,60,,,,,,,,,
,,0.095,-0.2075,1,0,0,1.033,probe1,"[0.1,-0.2]",0,8,8,8,1,9,probe1,0.05,0.05,0.1,-0.2,#0072b2,#e69f00,#FFFFFF,-0.1,0.2,#f0e442,#f0e442,#f0e442,-0.2,0.1,#d55e00,#d55e00,#d55e00,0.2,0.2,#cc79a7,#cc79a7,#cc79a7,0.1,0.1,#56b4e9,#56b4e9,#56b4e9,A1O0BGHFTMPQM0,001,2020-12-12_12h21.20.295,change-localization,2020.1.2,MacIntel,60,,,,,,,,,
,,0.1075,-0.2025,1,0,0,1.167,probe4,"[0.1,-0.2]",0,9,9,9,1,10,probe1,0.05,0.05,-0.1,-0.1,#4A4A4A,#f0e442,#FFFFFF,0,0.2,#cc79a7,#cc79a7,#cc79a7,0.2,-0.2,#e69f00,#e69f00,#e69f00,0.1,-0.2,#009e73,#009e73,#009e73,0.1,0.1,#d55e00,#d55e00,#d55e00,A1O0BGHFTMPQM0,001,2020-12-12_12h21.20.295,change-localization,2020.1.2,MacIntel,60,,,,,,,,,
,,-0.09,0.20125,1,0,0,1.237,probe2,"[-0.1,0.2]",,,,,,1,probe2,0.05,0.05,-0.2,0.2,#009e73,#009e73,,-0.1,0.2,#f0e442,#e69f00,,-0.1,0,#0072b2,#0072b2,,0,-0.2,#cc79a7,#cc79a7,,0,0.2,#d55e00,#d55e00,,A1O0BGHFTMPQM0,001,2020-12-12_12h21.20.295,change-localization,2020.1.2,MacIntel,60,c,2.829,0,0,0,0,1,,
,,-0.00125,-0.10875,1,0,0,1.251,probe5,"[0,-0.1]",,,,,,2,probe5,0.05,0.05,0,0.1,#009e73,#009e73,,0.2,0.1,#4A4A4A,#4A4A4A,,-0.1,-0.1,#cc79a7,#cc79a7,,0.1,0.1,#d55e00,#d55e00,,0,-0.1,#56b4e9,#e69f00,,A1O0BGHFTMPQM0,001,2020-12-12_12h21.20.295,change-localization,2020.1.2,MacIntel,60,,,0,1,1,1,1,,
,,-0.09,0.10625,1,0,0,1.25,probe4,"[-0.1,0.1]",,,,,,3,probe4,0.05,0.05,0.1,-0.1,#56b4e9,#56b4e9,,0.2,0,#f0e442,#f0e442,,0.2,-0.1,#e69f00,#e69f00,,-0.1,0.1,#4A4A4A,#009e73,,-0.1,0.2,#d55e00,#d55e00,,A1O0BGHFTMPQM0,001,2020-12-12_12h21.20.295,change-localization,2020.1.2,MacIntel,60,,,0,2,2,2,1,,
,,0.21375,-0.2125,1,0,0,1.851,probe4,"[0.2,-0.2]",,,,,,4,probe5,0.05,0.05,0.2,0,#56b4e9,#56b4e9,,-0.2,-0.2,#cc79a7,#cc79a7,,0,0.2,#4A4A4A,#4A4A4A,,0.2,-0.2,#e69f00,#e69f00,,-0.2,0,#f0e442,#009e73,,A1O0BGHFTMPQM0,001,2020-12-12_12h21.20.295,change-localization,2020.1.2,MacIntel,60,,,0,3,3,3,1,,
,,-0.07875,-0.09875,1,0,0,1.401,probe3,"[-0.1,-0.1]",,,,,,5,probe3,0.05,0.05,-0.2,0.1,#4A4A4A,#4A4A4A,,0.2,0.2,#009e73,#009e73,,-0.1,-0.1,#0072b2,#f0e442,,0.2,0,#cc79a7,#cc79a7,,0.1,0.1,#e69f00,#e69f00,,A1O0BGHFTMPQM0,001,2020-12-12_12h21.20.295,change-localization,2020.1.2,MacIntel,60,,,0,4,4,4,1,,
,,0.00375,0.19625,1,0,0,1.234,probe4,"[0,0.2]",,,,,,6,probe4,0.05,0.05,-0.1,0.1,#d55e00,#d55e00,,-0.2,0.2,#0072b2,#0072b2,,0,-0.1,#e69f00,#e69f00,,0,0.2,#56b4e9,#4A4A4A,,-0.2,-0.2,#009e73,#009e73,,A1O0BGHFTMPQM0,001,2020-12-12_12h21.20.295,change-localization,2020.1.2,MacIntel,60,,,0,5,5,5,1,,
,,0.19625,0.20625,1,0,0,1.3,probe4,"[0.2,0.2]",,,,,,7,probe4,0.05,0.05,0.2,-0.1,#56b4e9,#56b4e9,,-0.1,-0.1,#e69f00,#e69f00,,-0.2,0.2,#009e73,#009e73,,0.2,0.2,#cc79a7,#4A4A4A,,0.2,-0.2,#d55e00,#d55e00,,A1O0BGHFTMPQM0,001,2020-12-12_12h21.20.295,change-localization,2020.1.2,MacIntel,60,,,0,6,6,6,1,,
,,-0.19,0.19875,1,0,0,1.417,probe4,"[-0.2,0.2]",,,,,,8,probe4,0.05,0.05,-0.2,0.1,#e69f00,#e69f00,,0.1,0.2,#cc79a7,#cc79a7,,0.2,0.1,#4A4A4A,#4A4A4A,,-0.2,0.2,#56b4e9,#d55e00,,0.2,-0.1,#0072b2,#0072b2,,A1O0BGHFTMPQM0,001,2020-12-12_12h21.20.295,change-localization,2020.1.2,MacIntel,60,,,0,7,7,7,1,,
,,0.18625,0.20875,1,0,0,1.099,probe5,"[0.2,0.2]",,,,,,9,probe5,0.05,0.05,-0.1,0,#4A4A4A,#4A4A4A,,0.1,0.1,#56b4e9,#56b4e9,,-0.2,0.1,#009e73,#009e73,,0.2,0.1,#cc79a7,#cc79a7,,0.2,0.2,#d55e00,#f0e442,,A1O0BGHFTMPQM0,001,2020-12-12_12h21.20.295,change-localization,2020.1.2,MacIntel,60,,,0,8,8,8,1,,
,,0.0025,0.09875,1,0,0,0.983,probe3,"[0,0.1]",,,,,,10,probe3,0.05,0.05,0.2,0.2,#f0e442,#f0e442,,0.1,-0.1,#e69f00,#e69f00,,0,0.1,#cc79a7,#4A4A4A,,-0.2,0.1,#56b4e9,#56b4e9,,0.2,0,#0072b2,#0072b2,,A1O0BGHFTMPQM0,001,2020-12-12_12h21.20.295,change-localization,2020.1.2,MacIntel,60,,,0,9,9,9,1,,
,,0.10875,-0.105,1,0,0,1.485,probe3,"[0.1,-0.1]",,,,,,11,probe5,0.05,0.05,0.2,0.2,#4A4A4A,#4A4A4A,,0.1,0.2,#0072b2,#0072b2,,0.1,-0.1,#cc79a7,#cc79a7,,0,-0.2,#009e73,#009e73,,0.1,-0.2,#f0e442,#d55e00,,A1O0BGHFTMPQM0,001,2020-12-12_12h21.20.295,change-localization,2020.1.2,MacIntel,60,,,0,10,10,10,1,,
,,0.1,0.00875,1,0,0,0.984,probe4,"[0.1,0]",,,,,,12,probe4,0.05,0.05,-0.1,-0.1,#009e73,#009e73,,-0.1,0,#56b4e9,#56b4e9,,-0.1,-0.2,#0072b2,#0072b2,,0.1,0,#d55e00,#f0e442,,0,-0.1,#cc79a7,#cc79a7,,A1O0BGHFTMPQM0,001,2020-12-12_12h21.20.295,change-localization,2020.1.2,MacIntel,60,,,0,11,11,11,1,,
,,0.09625,-0.09375,1,0,0,1.018,probe2,"[0.1,-0.1]",,,,,,13,probe4,0.05,0.05,0,-0.1,#f0e442,#f0e442,,0.1,-0.1,#d55e00,#d55e00,,0.1,0.1,#0072b2,#0072b2,,-0.2,0.2,#cc79a7,#4A4A4A,,0.1,0.2,#009e73,#009e73,,A1O0BGHFTMPQM0,001,2020-12-12_12h21.20.295,change-localization,2020.1.2,MacIntel,60,,,0,12,12,12,1,,
,,0.1025,0.20125,1,0,0,1.284,probe5,"[0.1,0.2]",,,,,,14,probe5,0.05,0.05,0,0.2,#cc79a7,#cc79a7,,0,-0.1,#4A4A4A,#4A4A4A,,-0.2,0,#56b4e9,#56b4e9,,0.1,0.1,#0072b2,#0072b2,,0.1,0.2,#009e73,#e69f00,,A1O0BGHFTMPQM0,001,2020-12-12_12h21.20.295,change-localization,2020.1.2,MacIntel,60,,,0,13,13,13,1,,
,,0.18875,0.1025,1,0,0,1.25,probe3,"[0.2,0.1]",,,,,,15,probe3,0.05,0.05,0.2,0.2,#cc79a7,#cc79a7,,0,0.2,#56b4e9,#56b4e9,,0.2,0.1,#d55e00,#4A4A4A,,0.1,-0.1,#f0e442,#f0e442,,0.2,-0.1,#0072b2,#0072b2,,A1O0BGHFTMPQM0,001,2020-12-12_12h21.20.295,change-localization,2020.1.2,MacIntel,60,,,0,14,14,14,1,,
,,-0.20125,-0.1175,1,0,0,1.585,probe1,"[-0.2,-0.1]",,,,,,16,probe3,0.05,0.05,-0.2,-0.1,#f0e442,#f0e442,,-0.2,0.2,#d55e00,#d55e00,,0.1,0.1,#009e73,#4A4A4A,,-0.2,0.1,#56b4e9,#56b4e9,,0,-0.1,#cc79a7,#cc79a7,,A1O0BGHFTMPQM0,001,2020-12-12_12h21.20.295,change-localization,2020.1.2,MacIntel,60,,,0,15,15,15,1,,
,,-0.0075,0.1075,1,0,0,1.101,probe3,"[0,0.1]",,,,,,17,probe3,0.05,0.05,0.2,-0.1,#cc79a7,#cc79a7,,0,-0.2,#0072b2,#0072b2,,0,0.1,#4A4A4A,#e69f00,,-0.2,-0.1,#f0e442,#f0e442,,-0.1,-0.1,#009e73,#009e73,,A1O0BGHFTMPQM0,001,2020-12-12_12h21.20.295,change-localization,2020.1.2,MacIntel,60,,,0,16,16,16,1,,
,,0.21125,0.005,1,0,0,1.251,probe3,"[0.2,0]",,,,,,18,probe3,0.05,0.05,-0.1,0.1,#d55e00,#d55e00,,-0.1,0.2,#e69f00,#e69f00,,0.2,0,#009e73,#0072b2,,0.1,-0.1,#cc79a7,#cc79a7,,-0.2,0.2,#4A4A4A,#4A4A4A,,A1O0BGHFTMPQM0,001,2020-12-12_12h21.20.295,change-localization,2020.1.2,MacIntel,60,,,0,17,17,17,1,,
,,-0.11125,0.1025,1,0,0,0.969,probe3,"[-0.1,0.1]",,,,,,19,probe3,0.05,0.05,-0.1,0.2,#0072b2,#0072b2,,0,-0.1,#4A4A4A,#4A4A4A,,-0.1,0.1,#e69f00,#009e73,,0.2,0.1,#d55e00,#d55e00,,-0.2,0.1,#cc79a7,#cc79a7,,A1O0BGHFTMPQM0,001,2020-12-12_12h21.20.295,change-localization,2020.1.2,MacIntel,60,,,0,18,18,18,1,,
,,0.00625,-0.09125,1,0,0,1.216,probe4,"[0,-0.1]",,,,,,20,probe4,0.05,0.05,0.2,0,#56b4e9,#56b4e9,,-0.1,0.2,#009e73,#009e73,,-0.2,-0.2,#e69f00,#e69f00,,0,-0.1,#f0e442,#cc79a7,,-0.1,0,#4A4A4A,#4A4A4A,,A1O0BGHFTMPQM0,001,2020-12-12_12h21.20.295,change-localization,2020.1.2,MacIntel,60,,,0,19,19,19,1,,
,,0.18125,-0.00875,1,0,0,1.102,probe3,"[0.2,0]",,,,,,21,probe3,0.05,0.05,-0.1,0.1,#0072b2,#0072b2,,-0.1,0.2,#009e73,#009e73,,0.2,0,#56b4e9,#4A4A4A,,-0.2,0.2,#f0e442,#f0e442,,0.2,0.1,#d55e00,#d55e00,,A1O0BGHFTMPQM0,001,2020-12-12_12h21.20.295,change-localization,2020.1.2,MacIntel,60,,,0,20,20,20,1,,
,,-0.0075,-0.185,1,0,0,1.067,probe5,"[0,-0.2]",,,,,,22,probe4,0.05,0.05,0.2,-0.1,#d55e00,#d55e00,,0.2,0,#56b4e9,#56b4e9,,0.1,-0.2,#cc79a7,#cc79a7,,-0.2,-0.1,#4A4A4A,#009e73,,0,-0.2,#e69f00,#e69f00,,A1O0BGHFTMPQM0,001,2020-12-12_12h21.20.295,change-localization,2020.1.2,MacIntel,60,,,0,21,21,21,1,,
,,0.0975,0.10125,1,0,0,1.55,probe1,"[0.1,0.1]",,,,,,23,probe4,0.05,0.05,0.1,0.1,#56b4e9,#56b4e9,,-0.2,-0.1,#0072b2,#0072b2,,0.2,0,#d55e00,#d55e00,,-0.2,-0.2,#cc79a7,#009e73,,0.1,-0.2,#4A4A4A,#4A4A4A,,A1O0BGHFTMPQM0,001,2020-12-12_12h21.20.295,change-localization,2020.1.2,MacIntel,60,,,0,22,22,22,1,,
,,0.2025,0.2075,1,0,0,1.284,probe2,"[0.2,0.2]",,,,,,24,probe2,0.05,0.05,-0.1,-0.2,#4A4A4A,#4A4A4A,,0.2,0.2,#d55e00,#e69f00,,0.1,-0.1,#f0e442,#f0e442,,0.1,0.1,#56b4e9,#56b4e9,,-0.2,0.1,#cc79a7,#cc79a7,,A1O0BGHFTMPQM0,001,2020-12-12_12h21.20.295,change-localization,2020.1.2,MacIntel,60,,,0,23,23,23,1,,
,,0.1875,0.00625,1,0,0,1.103,probe3,"[0.2,0]",,,,,,25,probe3,0.05,0.05,-0.2,-0.2,#f0e442,#f0e442,,-0.1,-0.1,#4A4A4A,#4A4A4A,,0.2,0,#d55e00,#cc79a7,,0,0.2,#0072b2,#0072b2,,-0.2,0.1,#009e73,#009e73,,A1O0BGHFTMPQM0,001,2020-12-12_12h21.20.295,change-localization,2020.1.2,MacIntel,60,,,0,24,24,24,1,,
,,-0.095,-0.19875,1,0,0,1.152,probe3,"[-0.1,-0.2]",,,,,,26,probe3,0.05,0.05,0.1,-0.1,#e69f00,#e69f00,,-0.2,0,#56b4e9,#56b4e9,,-0.1,-0.2,#009e73,#d55e00,,-0.2,-0.1,#4A4A4A,#4A4A4A,,0.1,0,#cc79a7,#cc79a7,,A1O0BGHFTMPQM0,001,2020-12-12_12h21.20.295,change-localization,2020.1.2,MacIntel,60,,,0,25,25,25,1,,
,,-0.0975,-0.1725,1,0,0,1.034,probe2,"[0.2,0]",,,,,,27,probe5,0.05,0.05,-0.1,-0.2,#009e73,#009e73,,0.2,0,#cc79a7,#cc79a7,,-0.1,-0.1,#e69f00,#e69f00,,0.1,0.1,#d55e00,#d55e00,,-0.2,-0.1,#4A4A4A,#0072b2,,A1O0BGHFTMPQM0,001,2020-12-12_12h21.20.295,change-localization,2020.1.2,MacIntel,60,,,0,26,26,26,1,,
,,0.0025,-0.20375,1,0,0,1.135,probe3,"[0,-0.2]",,,,,,28,probe5,0.05,0.05,-0.1,0.2,#009e73,#009e73,,-0.2,0.1,#56b4e9,#56b4e9,,0,-0.2,#d55e00,#d55e00,,0.1,0,#0072b2,#0072b2,,0.1,0.1,#f0e442,#e69f00,,A1O0BGHFTMPQM0,001,2020-12-12_12h21.20.295,change-localization,2020.1.2,MacIntel,60,,,0,27,27,27,1,,
,,0.10625,-0.09625,1,0,0,0.884,probe1,"[0.1,-0.1]",,,,,,29,probe1,0.05,0.05,0.1,-0.1,#4A4A4A,#56b4e9,,-0.2,0.2,#e69f00,#e69f00,,-0.1,-0.1,#f0e442,#f0e442,,0.1,0.2,#0072b2,#0072b2,,-0.1,-0.2,#cc79a7,#cc79a7,,A1O0BGHFTMPQM0,001,2020-12-12_12h21.20.295,change-localization,2020.1.2,MacIntel,60,,,0,28,28,28,1,,
,,-0.105,-0.1925,1,0,0,1.002,probe2,"[-0.1,-0.2]",,,,,,30,probe2,0.05,0.05,0.1,0.2,#f0e442,#f0e442,,-0.1,-0.2,#d55e00,#4A4A4A,,0,-0.2,#cc79a7,#cc79a7,,0.1,-0.2,#0072b2,#0072b2,,-0.2,0,#009e73,#009e73,,A1O0BGHFTMPQM0,001,2020-12-12_12h21.20.295,change-localization,2020.1.2,MacIntel,60,,,0,29,29,29,1,,
,,-0.11875,-0.1025,1,0,0,1.149,probe5,"[-0.1,-0.1]",,,,,,31,probe5,0.05,0.05,0,-0.2,#d55e00,#d55e00,,0.1,0,#e69f00,#e69f00,,0.1,0.2,#f0e442,#f0e442,,-0.2,-0.1,#cc79a7,#cc79a7,,-0.1,-0.1,#009e73,#4A4A4A,,A1O0BGHFTMPQM0,001,2020-12-12_12h21.20.295,change-localization,2020.1.2,MacIntel,60,,,0,30,30,30,1,,
,,0.20875,0.21125,1,0,0,1.466,probe1,"[0.2,0.2]",,,,,,32,probe3,0.05,0.05,0.2,0.2,#56b4e9,#56b4e9,,-0.1,-0.1,#009e73,#009e73,,0.2,0.1,#cc79a7,#0072b2,,-0.2,0.1,#4A4A4A,#4A4A4A,,-0.2,-0.1,#f0e442,#f0e442,,A1O0BGHFTMPQM0,001,2020-12-12_12h21.20.295,change-localization,2020.1.2,MacIntel,60,,,0,31,31,31,1,,
,,-0.095,-0.10125,1,0,0,1.184,probe1,"[-0.1,-0.1]",,,,,,33,probe3,0.05,0.05,-0.1,-0.1,#0072b2,#0072b2,,0.1,0.1,#cc79a7,#cc79a7,,-0.1,0.1,#f0e442,#009e73,,0,-0.2,#56b4e9,#56b4e9,,0.1,0.2,#e69f00,#e69f00,,A1O0BGHFTMPQM0,001,2020-12-12_12h21.20.295,change-localization,2020.1.2,MacIntel,60,,,0,32,32,32,1,,
,,0.19,-0.19625,1,0,0,1.183,probe4,"[0.2,-0.2]",,,,,,34,probe5,0.05,0.05,0.2,0.1,#e69f00,#e69f00,,-0.2,0.1,#cc79a7,#cc79a7,,0.1,-0.2,#0072b2,#0072b2,,0.2,-0.2,#d55e00,#d55e00,,-0.2,0,#56b4e9,#009e73,,A1O0BGHFTMPQM0,001,2020-12-12_12h21.20.295,change-localization,2020.1.2,MacIntel,60,,,0,33,33,33,1,,
,,0.19,0.0075,1,0,0,0.984,probe1,"[0.2,0]",,,,,,35,probe2,0.05,0.05,0.2,0,#56b4e9,#56b4e9,,0.2,-0.1,#e69f00,#009e73,,0.1,-0.1,#f0e442,#f0e442,,0,0.2,#d55e00,#d55e00,,0.1,0.2,#cc79a7,#cc79a7,,A1O0BGHFTMPQM0,001,2020-12-12_12h21.20.295,change-localization,2020.1.2,MacIntel,60,,,0,34,34,34,1,,
,,-0.09125,-0.08875,1,0,0,1.365,probe4,"[-0.1,-0.1]",,,,,,36,probe3,0.05,0.05,0,0.1,#4A4A4A,#4A4A4A,,0.2,0.1,#009e73,#009e73,,-0.2,-0.1,#f0e442,#56b4e9,,-0.1,-0.1,#e69f00,#e69f00,,0.1,0,#0072b2,#0072b2,,A1O0BGHFTMPQM0,001,2020-12-12_12h21.20.295,change-localization,2020.1.2,MacIntel,60,,,0,35,35,35,1,,
,,0.1,-0.00625,1,0,0,1.1,probe5,"[0.1,0]",,,,,,37,probe5,0.05,0.05,-0.2,0.1,#e69f00,#e69f00,,0.1,0.1,#0072b2,#0072b2,,-0.2,0,#d55e00,#d55e00,,-0.1,0.2,#cc79a7,#cc79a7,,0.1,0,#009e73,#f0e442,,A1O0BGHFTMPQM0,001,2020-12-12_12h21.20.295,change-localization,2020.1.2,MacIntel,60,,,0,36,36,36,1,,
,,0.015,-0.1025,1,0,0,1.033,probe5,"[0,-0.1]",,,,,,38,probe4,0.05,0.05,0.2,-0.2,#4A4A4A,#4A4A4A,,0.2,0,#0072b2,#0072b2,,0.1,-0.1,#e69f00,#e69f00,,0.1,0,#d55e00,#cc79a7,,0,-0.1,#009e73,#009e73,,A1O0BGHFTMPQM0,001,2020-12-12_12h21.20.295,change-localization,2020.1.2,MacIntel,60,,,0,37,37,37,1,,
,,-0.2025,0.19,1,0,0,1.204,probe4,"[-0.2,0.2]",,,,,,39,probe4,0.05,0.05,0.1,-0.1,#e69f00,#e69f00,,-0.2,-0.1,#cc79a7,#cc79a7,,0.2,0.1,#d55e00,#d55e00,,-0.2,0.2,#56b4e9,#f0e442,,0,-0.1,#0072b2,#0072b2,,A1O0BGHFTMPQM0,001,2020-12-12_12h21.20.295,change-localization,2020.1.2,MacIntel,60,,,0,38,38,38,1,,
,,-0.20625,0.105,1,0,0,0.9,probe1,"[-0.2,0.1]",,,,,,40,probe1,0.05,0.05,-0.2,0.1,#4A4A4A,#d55e00,,0.2,0.2,#009e73,#009e73,,-0.1,-0.1,#cc79a7,#cc79a7,,0.2,-0.2,#e69f00,#e69f00,,0.1,-0.1,#56b4e9,#56b4e9,,A1O0BGHFTMPQM0,001,2020-12-12_12h21.20.295,change-localization,2020.1.2,MacIntel,60,,,0,39,39,39,1,,
,,-0.1025,0.00625,1,0,0,0.865,probe4,"[-0.1,0]",,,,,,41,probe4,0.05,0.05,0.2,0.1,#009e73,#009e73,,-0.2,-0.1,#0072b2,#0072b2,,-0.2,-0.2,#56b4e9,#56b4e9,,-0.1,0,#f0e442,#cc79a7,,0,-0.2,#d55e00,#d55e00,,A1O0BGHFTMPQM0,001,2020-12-12_12h21.20.295,change-localization,2020.1.2,MacIntel,60,,,0,40,40,40,1,,
,,-0.085,-0.195,1,0,0,1.101,probe1,"[-0.1,-0.2]",,,,,,42,probe4,0.05,0.05,-0.1,-0.2,#009e73,#009e73,,-0.1,0.1,#cc79a7,#cc79a7,,0.1,0.1,#56b4e9,#56b4e9,,0,-0.2,#e69f00,#d55e00,,-0.1,0,#0072b2,#0072b2,,A1O0BGHFTMPQM0,001,2020-12-12_12h21.20.295,change-localization,2020.1.2,MacIntel,60,,,0,41,41,41,1,,
,,-0.18375,-0.1925,1,0,0,1.401,probe3,"[-0.2,-0.2]",,,,,,43,probe1,0.05,0.05,0.2,-0.1,#e69f00,#009e73,,0.1,0,#cc79a7,#cc79a7,,-0.2,-0.2,#f0e442,#f0e442,,0.2,-0.2,#56b4e9,#56b4e9,,-0.2,0.1,#4A4A4A,#4A4A4A,,A1O0BGHFTMPQM0,001,2020-12-12_12h21.20.295,change-localization,2020.1.2,MacIntel,60,,,0,42,42,42,1,,
,,-0.09,0.215,1,0,0,1.301,probe1,"[-0.1,0.2]",,,,,,44,probe1,0.05,0.05,-0.1,0.2,#56b4e9,#e69f00,,0.2,0.1,#4A4A4A,#4A4A4A,,0.1,0,#cc79a7,#cc79a7,,0.1,0.2,#f0e442,#f0e442,,-0.1,-0.1,#d55e00,#d55e00,,A1O0BGHFTMPQM0,001,2020-12-12_12h21.20.295,change-localization,2020.1.2,MacIntel,60,,,0,43,43,43,1,,
,,-0.11625,0.1125,1,0,0,1.268,probe3,"[-0.1,0.1]",,,,,,45,probe3,0.05,0.05,-0.2,0.2,#0072b2,#0072b2,,-0.2,-0.1,#56b4e9,#56b4e9,,-0.1,0.1,#f0e442,#e69f00,,-0.1,0.2,#d55e00,#d55e00,,0,-0.2,#cc79a7,#cc79a7,,A1O0BGHFTMPQM0,001,2020-12-12_12h21.20.295,change-localization,2020.1.2,MacIntel,60,,,0,44,44,44,1,,
,,0.20125,0.00375,1,0,0,1.367,probe5,"[0.2,0]",,,,,,46,probe5,0.05,0.05,0.2,0.1,#0072b2,#0072b2,,0.1,0.2,#f0e442,#f0e442,,0.2,-0.2,#009e73,#009e73,,0.2,0.2,#4A4A4A,#4A4A4A,,0.2,0,#cc79a7,#e69f00,,A1O0BGHFTMPQM0,001,2020-12-12_12h21.20.295,change-localization,2020.1.2,MacIntel,60,,,0,45,45,45,1,,
,,0.19125,0.1975,1,0,0,1.217,probe3,"[0.2,0.2]",,,,,,47,probe3,0.05,0.05,0,-0.1,#009e73,#009e73,,-0.2,0.2,#f0e442,#f0e442,,0.2,0.2,#56b4e9,#cc79a7,,-0.1,0.2,#4A4A4A,#4A4A4A,,-0.1,0.1,#e69f00,#e69f00,,A1O0BGHFTMPQM0,001,2020-12-12_12h21.20.295,change-localization,2020.1.2,MacIntel,60,,,0,46,46,46,1,,
,,-0.20375,-0.09,1,0,0,1.084,probe4,"[-0.2,-0.1]",,,,,,48,probe4,0.05,0.05,0.2,-0.2,#cc79a7,#cc79a7,,-0.1,0.1,#009e73,#009e73,,0.1,-0.2,#f0e442,#f0e442,,-0.2,-0.1,#d55e00,#0072b2,,-0.1,0,#56b4e9,#56b4e9,,A1O0BGHFTMPQM0,001,2020-12-12_12h21.20.295,change-localization,2020.1.2,MacIntel,60,,,0,47,47,47,1,,
,,-0.00375,-0.1925,1,0,0,1.201,probe1,"[0,-0.2]",,,,,,49,probe2,0.05,0.05,0,-0.2,#e69f00,#e69f00,,-0.2,0,#cc79a7,#0072b2,,-0.1,0.2,#f0e442,#f0e442,,0.1,0.2,#4A4A4A,#4A4A4A,,-0.1,-0.1,#56b4e9,#56b4e9,,A1O0BGHFTMPQM0,001,2020-12-12_12h21.20.295,change-localization,2020.1.2,MacIntel,60,,,0,48,48,48,1,,
,,-0.08625,-0.00625,1,0,0,1.254,probe4,"[-0.1,0]",,,,,,50,probe4,0.05,0.05,0.2,0.1,#0072b2,#0072b2,,0.1,0.1,#cc79a7,#cc79a7,,0.1,-0.2,#56b4e9,#56b4e9,,-0.1,0,#009e73,#e69f00,,0,0.1,#d55e00,#d55e00,,A1O0BGHFTMPQM0,001,2020-12-12_12h21.20.295,change-localization,2020.1.2,MacIntel,60,,,0,49,49,49,1,,
,,,,,,,,,,,,,,,,,,,,,,,,,,,,,,,,,,,,,,,,,,,,A1O0BGHFTMPQM0,001,2020-12-12_12h21.20.295,change-localization,2020.1.2,MacIntel,60,,,,,,,,c,4.573
