key_resp.keys,key_resp.rt,mouse.x,mouse.y,mouse.leftButton,mouse.midButton,mouse.rightButton,mouse.time,mouse.clicked_name,mouse.clicked_pos,training.thisRepN,training.thisTrialN,training.thisN,training.thisIndex,training.ran,trial,answer,height,width,x1,y1,stim_color1,probe_color1,copy_color1,x2,y2,stim_color2,probe_color2,copy_color2,x3,y3,stim_color3,probe_color3,copy_color3,x4,y4,stim_color4,probe_color4,copy_color4,x5,y5,stim_color5,probe_color5,copy_color5,participant,session,date,expName,psychopyVersion,OS,frameRate,key_resp_2.keys,key_resp_2.rt,trials.thisRepN,trials.thisTrialN,trials.thisN,trials.thisIndex,trials.ran,completion_keys.keys,completion_keys.rt
c,5.226045,-0.11328125,-0.216145833,1,0,0,12.69729,probe3,"[-0.1,-0.2]",0,0,0,0,1,1,probe4,0.05,0.05,0.1,0.2,#0072b2,#0072b2,#0072b2,0.1,-0.1,#e69f00,#e69f00,#e69f00,-0.1,-0.2,#cc79a7,#cc79a7,#cc79a7,0.2,-0.1,#4A4A4A,#f0e442,#FFFFFF,0.2,0,#009e73,#009e73,#009e73,A1OWHL50LZGO1G,001,2020-12-11_18h08.41.601,change-localization,2020.1.2,Win32,60,,,,,,,,,
,,-0.013020833,-0.029947917,1,0,0,0.968695,probe5,"[-0.1,0]",0,1,1,1,1,2,probe1,0.05,0.05,0.2,0,#d55e00,#009e73,#FFFFFF,0.2,-0.1,#e69f00,#e69f00,#e69f00,0.1,0,#4A4A4A,#4A4A4A,#4A4A4A,-0.1,0.1,#56b4e9,#56b4e9,#56b4e9,-0.1,0,#cc79a7,#cc79a7,#cc79a7,A1OWHL50LZGO1G,001,2020-12-11_18h08.41.601,change-localization,2020.1.2,Win32,60,,,,,,,,,
,,0.01171875,-0.088541667,1,0,0,1.268235,probe5,"[0,-0.1]",0,2,2,2,1,3,probe1,0.05,0.05,-0.2,-0.2,#f0e442,#009e73,#FFFFFF,0.2,-0.1,#d55e00,#d55e00,#d55e00,-0.2,0,#4A4A4A,#4A4A4A,#4A4A4A,-0.1,-0.1,#0072b2,#0072b2,#0072b2,0,-0.1,#56b4e9,#56b4e9,#56b4e9,A1OWHL50LZGO1G,001,2020-12-11_18h08.41.601,change-localization,2020.1.2,Win32,60,,,,,,,,,
,,-0.196614583,0.08984375,1,0,0,1.937605,probe5,"[-0.2,0.1]",0,3,3,3,1,4,probe1,0.05,0.05,0.2,0.2,#d55e00,#56b4e9,#FFFFFF,-0.2,0.2,#f0e442,#f0e442,#f0e442,0.2,-0.2,#0072b2,#0072b2,#0072b2,-0.2,0,#cc79a7,#cc79a7,#cc79a7,-0.2,0.1,#4A4A4A,#4A4A4A,#4A4A4A,A1OWHL50LZGO1G,001,2020-12-11_18h08.41.601,change-localization,2020.1.2,Win32,60,,,,,,,,,
,,0.00390625,0.088541667,1,0,0,4.91221,probe3,"[0,0.1]",0,4,4,4,1,5,probe3,0.05,0.05,-0.2,0.1,#56b4e9,#56b4e9,#56b4e9,0,0.2,#009e73,#009e73,#009e73,0,0.1,#0072b2,#cc79a7,#FFFFFF,-0.1,-0.1,#4A4A4A,#4A4A4A,#4A4A4A,0.2,0,#f0e442,#f0e442,#f0e442,A1OWHL50LZGO1G,001,2020-12-11_18h08.41.601,change-localization,2020.1.2,Win32,60,,,,,,,,,
,,0.091145833,0.010416667,1,0,0,1.88041,probe5,"[0.1,0]",0,5,5,5,1,6,probe5,0.05,0.05,-0.1,0.1,#f0e442,#f0e442,#f0e442,0,0.1,#009e73,#009e73,#009e73,-0.2,0,#4A4A4A,#4A4A4A,#4A4A4A,0,-0.2,#d55e00,#d55e00,#d55e00,0.1,0,#cc79a7,#0072b2,#FFFFFF,A1OWHL50LZGO1G,001,2020-12-11_18h08.41.601,change-localization,2020.1.2,Win32,60,,,,,,,,,
,,0.087239583,0.184895833,1,0,0,1.96762,probe2,"[0.1,0.2]",0,6,6,6,1,7,probe2,0.05,0.05,-0.2,-0.2,#4A4A4A,#4A4A4A,#4A4A4A,0.1,0.2,#0072b2,#d55e00,#FFFFFF,-0.1,-0.2,#f0e442,#f0e442,#f0e442,-0.2,0.2,#009e73,#009e73,#009e73,0.2,0.2,#e69f00,#e69f00,#e69f00,A1OWHL50LZGO1G,001,2020-12-11_18h08.41.601,change-localization,2020.1.2,Win32,60,,,,,,,,,
,,0.114583333,-0.197916667,1,0,0,2.941775,probe1,"[0.1,-0.2]",0,7,7,7,1,8,probe1,0.05,0.05,0.1,-0.2,#009e73,#f0e442,#FFFFFF,-0.1,0,#d55e00,#d55e00,#d55e00,-0.1,0.1,#4A4A4A,#4A4A4A,#4A4A4A,-0.2,0,#cc79a7,#cc79a7,#cc79a7,0.2,0,#e69f00,#e69f00,#e69f00,A1OWHL50LZGO1G,001,2020-12-11_18h08.41.601,change-localization,2020.1.2,Win32,60,,,,,,,,,
,,0.102864583,-0.192708333,1,0,0,1.14989,probe1,"[0.1,-0.2]",0,8,8,8,1,9,probe1,0.05,0.05,0.1,-0.2,#0072b2,#e69f00,#FFFFFF,-0.1,0.2,#f0e442,#f0e442,#f0e442,-0.2,0.1,#d55e00,#d55e00,#d55e00,0.2,0.2,#cc79a7,#cc79a7,#cc79a7,0.1,0.1,#56b4e9,#56b4e9,#56b4e9,A1OWHL50LZGO1G,001,2020-12-11_18h08.41.601,change-localization,2020.1.2,Win32,60,,,,,,,,,
,,0.00390625,0.208333333,1,0,0,1.6957,probe2,"[0,0.2]",0,9,9,9,1,10,probe1,0.05,0.05,-0.1,-0.1,#4A4A4A,#f0e442,#FFFFFF,0,0.2,#cc79a7,#cc79a7,#cc79a7,0.2,-0.2,#e69f00,#e69f00,#e69f00,0.1,-0.2,#009e73,#009e73,#009e73,0.1,0.1,#d55e00,#d55e00,#d55e00,A1OWHL50LZGO1G,001,2020-12-11_18h08.41.601,change-localization,2020.1.2,Win32,60,,,,,,,,,
,,0.0078125,0.184895833,1,0,0,2.84871,probe5,"[0,0.2]",,,,,,1,probe2,0.05,0.05,-0.2,0.2,#009e73,#009e73,,-0.1,0.2,#f0e442,#e69f00,,-0.1,0,#0072b2,#0072b2,,0,-0.2,#cc79a7,#cc79a7,,0,0.2,#d55e00,#d55e00,,A1OWHL50LZGO1G,001,2020-12-11_18h08.41.601,change-localization,2020.1.2,Win32,60,c,5.58752,0,0,0,0,1,,
,,0.018229167,-0.109375,1,0,0,1.574755,probe5,"[0,-0.1]",,,,,,2,probe5,0.05,0.05,0,0.1,#009e73,#009e73,,0.2,0.1,#4A4A4A,#4A4A4A,,-0.1,-0.1,#cc79a7,#cc79a7,,0.1,0.1,#d55e00,#d55e00,,0,-0.1,#56b4e9,#e69f00,,A1OWHL50LZGO1G,001,2020-12-11_18h08.41.601,change-localization,2020.1.2,Win32,60,,,0,1,1,1,1,,
,,-0.092447917,0.096354167,1,0,0,2.663235,probe4,"[-0.1,0.1]",,,,,,3,probe4,0.05,0.05,0.1,-0.1,#56b4e9,#56b4e9,,0.2,0,#f0e442,#f0e442,,0.2,-0.1,#e69f00,#e69f00,,-0.1,0.1,#4A4A4A,#009e73,,-0.1,0.2,#d55e00,#d55e00,,A1OWHL50LZGO1G,001,2020-12-11_18h08.41.601,change-localization,2020.1.2,Win32,60,,,0,2,2,2,1,,
,,-0.203125,-0.006510417,1,0,0,1.581835,probe5,"[-0.2,0]",,,,,,4,probe5,0.05,0.05,0.2,0,#56b4e9,#56b4e9,,-0.2,-0.2,#cc79a7,#cc79a7,,0,0.2,#4A4A4A,#4A4A4A,,0.2,-0.2,#e69f00,#e69f00,,-0.2,0,#f0e442,#009e73,,A1OWHL50LZGO1G,001,2020-12-11_18h08.41.601,change-localization,2020.1.2,Win32,60,,,0,3,3,3,1,,
,,-0.1015625,-0.1171875,1,0,0,2.394155,probe3,"[-0.1,-0.1]",,,,,,5,probe3,0.05,0.05,-0.2,0.1,#4A4A4A,#4A4A4A,,0.2,0.2,#009e73,#009e73,,-0.1,-0.1,#0072b2,#f0e442,,0.2,0,#cc79a7,#cc79a7,,0.1,0.1,#e69f00,#e69f00,,A1OWHL50LZGO1G,001,2020-12-11_18h08.41.601,change-localization,2020.1.2,Win32,60,,,0,4,4,4,1,,
,,0.010416667,0.220052083,1,0,0,2.72716,probe4,"[0,0.2]",,,,,,6,probe4,0.05,0.05,-0.1,0.1,#d55e00,#d55e00,,-0.2,0.2,#0072b2,#0072b2,,0,-0.1,#e69f00,#e69f00,,0,0.2,#56b4e9,#4A4A4A,,-0.2,-0.2,#009e73,#009e73,,A1OWHL50LZGO1G,001,2020-12-11_18h08.41.601,change-localization,2020.1.2,Win32,60,,,0,5,5,5,1,,
,,0.19140625,0.196614583,1,0,0,1.397185,probe4,"[0.2,0.2]",,,,,,7,probe4,0.05,0.05,0.2,-0.1,#56b4e9,#56b4e9,,-0.1,-0.1,#e69f00,#e69f00,,-0.2,0.2,#009e73,#009e73,,0.2,0.2,#cc79a7,#4A4A4A,,0.2,-0.2,#d55e00,#d55e00,,A1OWHL50LZGO1G,001,2020-12-11_18h08.41.601,change-localization,2020.1.2,Win32,60,,,0,6,6,6,1,,
,,-0.196614583,0.200520833,1,0,0,2.576785,probe4,"[-0.2,0.2]",,,,,,8,probe4,0.05,0.05,-0.2,0.1,#e69f00,#e69f00,,0.1,0.2,#cc79a7,#cc79a7,,0.2,0.1,#4A4A4A,#4A4A4A,,-0.2,0.2,#56b4e9,#d55e00,,0.2,-0.1,#0072b2,#0072b2,,A1OWHL50LZGO1G,001,2020-12-11_18h08.41.601,change-localization,2020.1.2,Win32,60,,,0,7,7,7,1,,
,,0.19921875,0.109375,1,0,0,1.150495,probe4,"[0.2,0.1]",,,,,,9,probe5,0.05,0.05,-0.1,0,#4A4A4A,#4A4A4A,,0.1,0.1,#56b4e9,#56b4e9,,-0.2,0.1,#009e73,#009e73,,0.2,0.1,#cc79a7,#cc79a7,,0.2,0.2,#d55e00,#f0e442,,A1OWHL50LZGO1G,001,2020-12-11_18h08.41.601,change-localization,2020.1.2,Win32,60,,,0,8,8,8,1,,
,,-0.036458333,0.106770833,1,0,0,3.754595,probe3,"[0,0.1]",,,,,,10,probe3,0.05,0.05,0.2,0.2,#f0e442,#f0e442,,0.1,-0.1,#e69f00,#e69f00,,0,0.1,#cc79a7,#4A4A4A,,-0.2,0.1,#56b4e9,#56b4e9,,0.2,0,#0072b2,#0072b2,,A1OWHL50LZGO1G,001,2020-12-11_18h08.41.601,change-localization,2020.1.2,Win32,60,,,0,9,9,9,1,,
,,0.102864583,-0.09375,1,0,0,4.11947,probe3,"[0.1,-0.1]",,,,,,11,probe5,0.05,0.05,0.2,0.2,#4A4A4A,#4A4A4A,,0.1,0.2,#0072b2,#0072b2,,0.1,-0.1,#cc79a7,#cc79a7,,0,-0.2,#009e73,#009e73,,0.1,-0.2,#f0e442,#d55e00,,A1OWHL50LZGO1G,001,2020-12-11_18h08.41.601,change-localization,2020.1.2,Win32,60,,,0,10,10,10,1,,
,,0.115885417,-0.0078125,1,0,0,2.15225,probe4,"[0.1,0]",,,,,,12,probe4,0.05,0.05,-0.1,-0.1,#009e73,#009e73,,-0.1,0,#56b4e9,#56b4e9,,-0.1,-0.2,#0072b2,#0072b2,,0.1,0,#d55e00,#f0e442,,0,-0.1,#cc79a7,#cc79a7,,A1OWHL50LZGO1G,001,2020-12-11_18h08.41.601,change-localization,2020.1.2,Win32,60,,,0,11,11,11,1,,
,,-0.20703125,0.200520833,1,0,0,1.849345,probe4,"[-0.2,0.2]",,,,,,13,probe4,0.05,0.05,0,-0.1,#f0e442,#f0e442,,0.1,-0.1,#d55e00,#d55e00,,0.1,0.1,#0072b2,#0072b2,,-0.2,0.2,#cc79a7,#4A4A4A,,0.1,0.2,#009e73,#009e73,,A1OWHL50LZGO1G,001,2020-12-11_18h08.41.601,change-localization,2020.1.2,Win32,60,,,0,12,12,12,1,,
,,0.115885417,0.209635417,1,0,0,1.396925,probe5,"[0.1,0.2]",,,,,,14,probe5,0.05,0.05,0,0.2,#cc79a7,#cc79a7,,0,-0.1,#4A4A4A,#4A4A4A,,-0.2,0,#56b4e9,#56b4e9,,0.1,0.1,#0072b2,#0072b2,,0.1,0.2,#009e73,#e69f00,,A1OWHL50LZGO1G,001,2020-12-11_18h08.41.601,change-localization,2020.1.2,Win32,60,,,0,13,13,13,1,,
,,0.204427083,0.109375,1,0,0,1.638545,probe3,"[0.2,0.1]",,,,,,15,probe3,0.05,0.05,0.2,0.2,#cc79a7,#cc79a7,,0,0.2,#56b4e9,#56b4e9,,0.2,0.1,#d55e00,#4A4A4A,,0.1,-0.1,#f0e442,#f0e442,,0.2,-0.1,#0072b2,#0072b2,,A1OWHL50LZGO1G,001,2020-12-11_18h08.41.601,change-localization,2020.1.2,Win32,60,,,0,14,14,14,1,,
,,0.131510417,0.09765625,1,0,0,1.120595,probe3,"[0.1,0.1]",,,,,,16,probe3,0.05,0.05,-0.2,-0.1,#f0e442,#f0e442,,-0.2,0.2,#d55e00,#d55e00,,0.1,0.1,#009e73,#4A4A4A,,-0.2,0.1,#56b4e9,#56b4e9,,0,-0.1,#cc79a7,#cc79a7,,A1OWHL50LZGO1G,001,2020-12-11_18h08.41.601,change-localization,2020.1.2,Win32,60,,,0,15,15,15,1,,
,,0.010416667,0.098958333,1,0,0,1.241375,probe3,"[0,0.1]",,,,,,17,probe3,0.05,0.05,0.2,-0.1,#cc79a7,#cc79a7,,0,-0.2,#0072b2,#0072b2,,0,0.1,#4A4A4A,#e69f00,,-0.2,-0.1,#f0e442,#f0e442,,-0.1,-0.1,#009e73,#009e73,,A1OWHL50LZGO1G,001,2020-12-11_18h08.41.601,change-localization,2020.1.2,Win32,60,,,0,16,16,16,1,,
,,0.204427083,0.001302083,1,0,0,1.306665,probe3,"[0.2,0]",,,,,,18,probe3,0.05,0.05,-0.1,0.1,#d55e00,#d55e00,,-0.1,0.2,#e69f00,#e69f00,,0.2,0,#009e73,#0072b2,,0.1,-0.1,#cc79a7,#cc79a7,,-0.2,0.2,#4A4A4A,#4A4A4A,,A1OWHL50LZGO1G,001,2020-12-11_18h08.41.601,change-localization,2020.1.2,Win32,60,,,0,17,17,17,1,,
,,-0.196614583,0.09765625,1,0,0,1.69668,probe5,"[-0.2,0.1]",,,,,,19,probe3,0.05,0.05,-0.1,0.2,#0072b2,#0072b2,,0,-0.1,#4A4A4A,#4A4A4A,,-0.1,0.1,#e69f00,#009e73,,0.2,0.1,#d55e00,#d55e00,,-0.2,0.1,#cc79a7,#cc79a7,,A1OWHL50LZGO1G,001,2020-12-11_18h08.41.601,change-localization,2020.1.2,Win32,60,,,0,18,18,18,1,,
,,-0.01171875,-0.108072917,1,0,0,2.150885,probe4,"[0,-0.1]",,,,,,20,probe4,0.05,0.05,0.2,0,#56b4e9,#56b4e9,,-0.1,0.2,#009e73,#009e73,,-0.2,-0.2,#e69f00,#e69f00,,0,-0.1,#f0e442,#cc79a7,,-0.1,0,#4A4A4A,#4A4A4A,,A1OWHL50LZGO1G,001,2020-12-11_18h08.41.601,change-localization,2020.1.2,Win32,60,,,0,19,19,19,1,,
,,0.209635417,-0.015625,1,0,0,1.455605,probe3,"[0.2,0]",,,,,,21,probe3,0.05,0.05,-0.1,0.1,#0072b2,#0072b2,,-0.1,0.2,#009e73,#009e73,,0.2,0,#56b4e9,#4A4A4A,,-0.2,0.2,#f0e442,#f0e442,,0.2,0.1,#d55e00,#d55e00,,A1OWHL50LZGO1G,001,2020-12-11_18h08.41.601,change-localization,2020.1.2,Win32,60,,,0,20,20,20,1,,
,,-0.192708333,-0.095052083,1,0,0,2.03047,probe4,"[-0.2,-0.1]",,,,,,22,probe4,0.05,0.05,0.2,-0.1,#d55e00,#d55e00,,0.2,0,#56b4e9,#56b4e9,,0.1,-0.2,#cc79a7,#cc79a7,,-0.2,-0.1,#4A4A4A,#009e73,,0,-0.2,#e69f00,#e69f00,,A1OWHL50LZGO1G,001,2020-12-11_18h08.41.601,change-localization,2020.1.2,Win32,60,,,0,21,21,21,1,,
,,0.111979167,0.087239583,1,0,0,2.96369,probe1,"[0.1,0.1]",,,,,,23,probe4,0.05,0.05,0.1,0.1,#56b4e9,#56b4e9,,-0.2,-0.1,#0072b2,#0072b2,,0.2,0,#d55e00,#d55e00,,-0.2,-0.2,#cc79a7,#009e73,,0.1,-0.2,#4A4A4A,#4A4A4A,,A1OWHL50LZGO1G,001,2020-12-11_18h08.41.601,change-localization,2020.1.2,Win32,60,,,0,22,22,22,1,,
,,0.225260417,0.192708333,1,0,0,1.576345,probe2,"[0.2,0.2]",,,,,,24,probe2,0.05,0.05,-0.1,-0.2,#4A4A4A,#4A4A4A,,0.2,0.2,#d55e00,#e69f00,,0.1,-0.1,#f0e442,#f0e442,,0.1,0.1,#56b4e9,#56b4e9,,-0.2,0.1,#cc79a7,#cc79a7,,A1OWHL50LZGO1G,001,2020-12-11_18h08.41.601,change-localization,2020.1.2,Win32,60,,,0,23,23,23,1,,
,,0.1875,0.016927083,1,0,0,1.33033,probe3,"[0.2,0]",,,,,,25,probe3,0.05,0.05,-0.2,-0.2,#f0e442,#f0e442,,-0.1,-0.1,#4A4A4A,#4A4A4A,,0.2,0,#d55e00,#cc79a7,,0,0.2,#0072b2,#0072b2,,-0.2,0.1,#009e73,#009e73,,A1OWHL50LZGO1G,001,2020-12-11_18h08.41.601,change-localization,2020.1.2,Win32,60,,,0,24,24,24,1,,
,,-0.098958333,-0.188802083,1,0,0,1.81944,probe3,"[-0.1,-0.2]",,,,,,26,probe3,0.05,0.05,0.1,-0.1,#e69f00,#e69f00,,-0.2,0,#56b4e9,#56b4e9,,-0.1,-0.2,#009e73,#d55e00,,-0.2,-0.1,#4A4A4A,#4A4A4A,,0.1,0,#cc79a7,#cc79a7,,A1OWHL50LZGO1G,001,2020-12-11_18h08.41.601,change-localization,2020.1.2,Win32,60,,,0,25,25,25,1,,
,,-0.1171875,-0.204427083,1,0,0,2.546195,probe1,"[-0.1,-0.2]",,,,,,27,probe5,0.05,0.05,-0.1,-0.2,#009e73,#009e73,,0.2,0,#cc79a7,#cc79a7,,-0.1,-0.1,#e69f00,#e69f00,,0.1,0.1,#d55e00,#d55e00,,-0.2,-0.1,#4A4A4A,#0072b2,,A1OWHL50LZGO1G,001,2020-12-11_18h08.41.601,change-localization,2020.1.2,Win32,60,,,0,26,26,26,1,,
,,-0.1796875,0.095052083,1,0,0,5.055405,probe2,"[-0.2,0.1]",,,,,,28,probe5,0.05,0.05,-0.1,0.2,#009e73,#009e73,,-0.2,0.1,#56b4e9,#56b4e9,,0,-0.2,#d55e00,#d55e00,,0.1,0,#0072b2,#0072b2,,0.1,0.1,#f0e442,#e69f00,,A1OWHL50LZGO1G,001,2020-12-11_18h08.41.601,change-localization,2020.1.2,Win32,60,,,0,27,27,27,1,,
,,-0.186197917,0.19921875,1,0,0,1.54412,probe2,"[-0.2,0.2]",,,,,,29,probe1,0.05,0.05,0.1,-0.1,#4A4A4A,#56b4e9,,-0.2,0.2,#e69f00,#e69f00,,-0.1,-0.1,#f0e442,#f0e442,,0.1,0.2,#0072b2,#0072b2,,-0.1,-0.2,#cc79a7,#cc79a7,,A1OWHL50LZGO1G,001,2020-12-11_18h08.41.601,change-localization,2020.1.2,Win32,60,,,0,28,28,28,1,,
,,-0.115885417,-0.209635417,1,0,0,1.878055,probe2,"[-0.1,-0.2]",,,,,,30,probe2,0.05,0.05,0.1,0.2,#f0e442,#f0e442,,-0.1,-0.2,#d55e00,#4A4A4A,,0,-0.2,#cc79a7,#cc79a7,,0.1,-0.2,#0072b2,#0072b2,,-0.2,0,#009e73,#009e73,,A1OWHL50LZGO1G,001,2020-12-11_18h08.41.601,change-localization,2020.1.2,Win32,60,,,0,29,29,29,1,,
,,-0.200520833,-0.118489583,1,0,0,6.15304,probe4,"[-0.2,-0.1]",,,,,,31,probe5,0.05,0.05,0,-0.2,#d55e00,#d55e00,,0.1,0,#e69f00,#e69f00,,0.1,0.2,#f0e442,#f0e442,,-0.2,-0.1,#cc79a7,#cc79a7,,-0.1,-0.1,#009e73,#4A4A4A,,A1OWHL50LZGO1G,001,2020-12-11_18h08.41.601,change-localization,2020.1.2,Win32,60,,,0,30,30,30,1,,
,,0.196614583,0.11328125,1,0,0,5.453195,probe3,"[0.2,0.1]",,,,,,32,probe3,0.05,0.05,0.2,0.2,#56b4e9,#56b4e9,,-0.1,-0.1,#009e73,#009e73,,0.2,0.1,#cc79a7,#0072b2,,-0.2,0.1,#4A4A4A,#4A4A4A,,-0.2,-0.1,#f0e442,#f0e442,,A1OWHL50LZGO1G,001,2020-12-11_18h08.41.601,change-localization,2020.1.2,Win32,60,,,0,31,31,31,1,,
,,-0.09375,-0.092447917,1,0,0,1.785525,probe1,"[-0.1,-0.1]",,,,,,33,probe3,0.05,0.05,-0.1,-0.1,#0072b2,#0072b2,,0.1,0.1,#cc79a7,#cc79a7,,-0.1,0.1,#f0e442,#009e73,,0,-0.2,#56b4e9,#56b4e9,,0.1,0.2,#e69f00,#e69f00,,A1OWHL50LZGO1G,001,2020-12-11_18h08.41.601,change-localization,2020.1.2,Win32,60,,,0,32,32,32,1,,
,,-0.1953125,0.006510417,1,0,0,1.642565,probe5,"[-0.2,0]",,,,,,34,probe5,0.05,0.05,0.2,0.1,#e69f00,#e69f00,,-0.2,0.1,#cc79a7,#cc79a7,,0.1,-0.2,#0072b2,#0072b2,,0.2,-0.2,#d55e00,#d55e00,,-0.2,0,#56b4e9,#009e73,,A1OWHL50LZGO1G,001,2020-12-11_18h08.41.601,change-localization,2020.1.2,Win32,60,,,0,33,33,33,1,,
,,0.213541667,-0.11328125,1,0,0,1.696295,probe2,"[0.2,-0.1]",,,,,,35,probe2,0.05,0.05,0.2,0,#56b4e9,#56b4e9,,0.2,-0.1,#e69f00,#009e73,,0.1,-0.1,#f0e442,#f0e442,,0,0.2,#d55e00,#d55e00,,0.1,0.2,#cc79a7,#cc79a7,,A1OWHL50LZGO1G,001,2020-12-11_18h08.41.601,change-localization,2020.1.2,Win32,60,,,0,34,34,34,1,,
,,-0.092447917,-0.096354167,1,0,0,3.825965,probe4,"[-0.1,-0.1]",,,,,,36,probe3,0.05,0.05,0,0.1,#4A4A4A,#4A4A4A,,0.2,0.1,#009e73,#009e73,,-0.2,-0.1,#f0e442,#56b4e9,,-0.1,-0.1,#e69f00,#e69f00,,0.1,0,#0072b2,#0072b2,,A1OWHL50LZGO1G,001,2020-12-11_18h08.41.601,change-localization,2020.1.2,Win32,60,,,0,35,35,35,1,,
,,-0.21875,0.002604167,1,0,0,2.27148,probe3,"[-0.2,0]",,,,,,37,probe5,0.05,0.05,-0.2,0.1,#e69f00,#e69f00,,0.1,0.1,#0072b2,#0072b2,,-0.2,0,#d55e00,#d55e00,,-0.1,0.2,#cc79a7,#cc79a7,,0.1,0,#009e73,#f0e442,,A1OWHL50LZGO1G,001,2020-12-11_18h08.41.601,change-localization,2020.1.2,Win32,60,,,0,36,36,36,1,,
,,0.102864583,-0.009114583,1,0,0,1.298465,probe4,"[0.1,0]",,,,,,38,probe4,0.05,0.05,0.2,-0.2,#4A4A4A,#4A4A4A,,0.2,0,#0072b2,#0072b2,,0.1,-0.1,#e69f00,#e69f00,,0.1,0,#d55e00,#cc79a7,,0,-0.1,#009e73,#009e73,,A1OWHL50LZGO1G,001,2020-12-11_18h08.41.601,change-localization,2020.1.2,Win32,60,,,0,37,37,37,1,,
,,-0.169270833,0.192708333,1,0,0,2.51327,probe4,"[-0.2,0.2]",,,,,,39,probe4,0.05,0.05,0.1,-0.1,#e69f00,#e69f00,,-0.2,-0.1,#cc79a7,#cc79a7,,0.2,0.1,#d55e00,#d55e00,,-0.2,0.2,#56b4e9,#f0e442,,0,-0.1,#0072b2,#0072b2,,A1OWHL50LZGO1G,001,2020-12-11_18h08.41.601,change-localization,2020.1.2,Win32,60,,,0,38,38,38,1,,
,,-0.19140625,0.11328125,1,0,0,1.453055,probe1,"[-0.2,0.1]",,,,,,40,probe1,0.05,0.05,-0.2,0.1,#4A4A4A,#d55e00,,0.2,0.2,#009e73,#009e73,,-0.1,-0.1,#cc79a7,#cc79a7,,0.2,-0.2,#e69f00,#e69f00,,0.1,-0.1,#56b4e9,#56b4e9,,A1OWHL50LZGO1G,001,2020-12-11_18h08.41.601,change-localization,2020.1.2,Win32,60,,,0,39,39,39,1,,
,,-0.213541667,-0.209635417,1,0,0,3.303445,probe3,"[-0.2,-0.2]",,,,,,41,probe4,0.05,0.05,0.2,0.1,#009e73,#009e73,,-0.2,-0.1,#0072b2,#0072b2,,-0.2,-0.2,#56b4e9,#56b4e9,,-0.1,0,#f0e442,#cc79a7,,0,-0.2,#d55e00,#d55e00,,A1OWHL50LZGO1G,001,2020-12-11_18h08.41.601,change-localization,2020.1.2,Win32,60,,,0,40,40,40,1,,
,,-0.00390625,-0.209635417,1,0,0,6.4596,probe4,"[0,-0.2]",,,,,,42,probe4,0.05,0.05,-0.1,-0.2,#009e73,#009e73,,-0.1,0.1,#cc79a7,#cc79a7,,0.1,0.1,#56b4e9,#56b4e9,,0,-0.2,#e69f00,#d55e00,,-0.1,0,#0072b2,#0072b2,,A1OWHL50LZGO1G,001,2020-12-11_18h08.41.601,change-localization,2020.1.2,Win32,60,,,0,41,41,41,1,,
,,0.174479167,-0.08984375,1,0,0,1.422285,probe1,"[0.2,-0.1]",,,,,,43,probe1,0.05,0.05,0.2,-0.1,#e69f00,#009e73,,0.1,0,#cc79a7,#cc79a7,,-0.2,-0.2,#f0e442,#f0e442,,0.2,-0.2,#56b4e9,#56b4e9,,-0.2,0.1,#4A4A4A,#4A4A4A,,A1OWHL50LZGO1G,001,2020-12-11_18h08.41.601,change-localization,2020.1.2,Win32,60,,,0,42,42,42,1,,
,,-0.07421875,0.213541667,1,0,0,2.06038,probe1,"[-0.1,0.2]",,,,,,44,probe1,0.05,0.05,-0.1,0.2,#56b4e9,#e69f00,,0.2,0.1,#4A4A4A,#4A4A4A,,0.1,0,#cc79a7,#cc79a7,,0.1,0.2,#f0e442,#f0e442,,-0.1,-0.1,#d55e00,#d55e00,,A1OWHL50LZGO1G,001,2020-12-11_18h08.41.601,change-localization,2020.1.2,Win32,60,,,0,43,43,43,1,,
,,0.002604167,-0.21484375,1,0,0,4.63928,probe5,"[0,-0.2]",,,,,,45,probe3,0.05,0.05,-0.2,0.2,#0072b2,#0072b2,,-0.2,-0.1,#56b4e9,#56b4e9,,-0.1,0.1,#f0e442,#e69f00,,-0.1,0.2,#d55e00,#d55e00,,0,-0.2,#cc79a7,#cc79a7,,A1OWHL50LZGO1G,001,2020-12-11_18h08.41.601,change-localization,2020.1.2,Win32,60,,,0,44,44,44,1,,
,,0.182291667,-0.21484375,1,0,0,1.755065,probe3,"[0.2,-0.2]",,,,,,46,probe5,0.05,0.05,0.2,0.1,#0072b2,#0072b2,,0.1,0.2,#f0e442,#f0e442,,0.2,-0.2,#009e73,#009e73,,0.2,0.2,#4A4A4A,#4A4A4A,,0.2,0,#cc79a7,#e69f00,,A1OWHL50LZGO1G,001,2020-12-11_18h08.41.601,change-localization,2020.1.2,Win32,60,,,0,45,45,45,1,,
,,0.197916667,0.200520833,1,0,0,1.96552,probe3,"[0.2,0.2]",,,,,,47,probe3,0.05,0.05,0,-0.1,#009e73,#009e73,,-0.2,0.2,#f0e442,#f0e442,,0.2,0.2,#56b4e9,#cc79a7,,-0.1,0.2,#4A4A4A,#4A4A4A,,-0.1,0.1,#e69f00,#e69f00,,A1OWHL50LZGO1G,001,2020-12-11_18h08.41.601,change-localization,2020.1.2,Win32,60,,,0,46,46,46,1,,
,,-0.19921875,-0.108072917,1,0,0,1.876645,probe4,"[-0.2,-0.1]",,,,,,48,probe4,0.05,0.05,0.2,-0.2,#cc79a7,#cc79a7,,-0.1,0.1,#009e73,#009e73,,0.1,-0.2,#f0e442,#f0e442,,-0.2,-0.1,#d55e00,#0072b2,,-0.1,0,#56b4e9,#56b4e9,,A1OWHL50LZGO1G,001,2020-12-11_18h08.41.601,change-localization,2020.1.2,Win32,60,,,0,47,47,47,1,,
,,-0.080729167,0.208333333,1,0,0,1.60314,probe3,"[-0.1,0.2]",,,,,,49,probe2,0.05,0.05,0,-0.2,#e69f00,#e69f00,,-0.2,0,#cc79a7,#0072b2,,-0.1,0.2,#f0e442,#f0e442,,0.1,0.2,#4A4A4A,#4A4A4A,,-0.1,-0.1,#56b4e9,#56b4e9,,A1OWHL50LZGO1G,001,2020-12-11_18h08.41.601,change-localization,2020.1.2,Win32,60,,,0,48,48,48,1,,
,,-0.12109375,-0.0078125,1,0,0,1.848435,probe4,"[-0.1,0]",,,,,,50,probe4,0.05,0.05,0.2,0.1,#0072b2,#0072b2,,0.1,0.1,#cc79a7,#cc79a7,,0.1,-0.2,#56b4e9,#56b4e9,,-0.1,0,#009e73,#e69f00,,0,0.1,#d55e00,#d55e00,,A1OWHL50LZGO1G,001,2020-12-11_18h08.41.601,change-localization,2020.1.2,Win32,60,,,0,49,49,49,1,,
,,,,,,,,,,,,,,,,,,,,,,,,,,,,,,,,,,,,,,,,,,,,A1OWHL50LZGO1G,001,2020-12-11_18h08.41.601,change-localization,2020.1.2,Win32,60,,,,,,,,c,21.66989
