key_resp.keys,key_resp.rt,mouse.x,mouse.y,mouse.leftButton,mouse.midButton,mouse.rightButton,mouse.time,mouse.clicked_name,mouse.clicked_pos,training.thisRepN,training.thisTrialN,training.thisN,training.thisIndex,training.ran,trial,answer,height,width,x1,y1,stim_color1,probe_color1,copy_color1,x2,y2,stim_color2,probe_color2,copy_color2,x3,y3,stim_color3,probe_color3,copy_color3,x4,y4,stim_color4,probe_color4,copy_color4,x5,y5,stim_color5,probe_color5,copy_color5,participant,session,date,expName,psychopyVersion,OS,frameRate,key_resp_2.keys,key_resp_2.rt,trials.thisRepN,trials.thisTrialN,trials.thisN,trials.thisIndex,trials.ran,completion_keys.keys,completion_keys.rt
c,30.312385,-0.1136,-0.196,1,0,0,49.630885,probe3,"[-0.1,-0.2]",0,0,0,0,1,1,probe4,0.05,0.05,0.1,0.2,#0072b2,#0072b2,#0072b2,0.1,-0.1,#e69f00,#e69f00,#e69f00,-0.1,-0.2,#cc79a7,#cc79a7,#cc79a7,0.2,-0.1,#4A4A4A,#f0e442,#FFFFFF,0.2,0,#009e73,#009e73,#009e73,A1R56DJ485MV3E,001,2020-12-13_05h42.29.777,change-localization,2020.1.2,Win32,60,,,,,,,,,
,,0.1056,-0.0008,1,0,0,3.61912,probe3,"[0.1,0]",0,1,1,1,1,2,probe1,0.05,0.05,0.2,0,#d55e00,#009e73,#FFFFFF,0.2,-0.1,#e69f00,#e69f00,#e69f00,0.1,0,#4A4A4A,#4A4A4A,#4A4A4A,-0.1,0.1,#56b4e9,#56b4e9,#56b4e9,-0.1,0,#cc79a7,#cc79a7,#cc79a7,A1R56DJ485MV3E,001,2020-12-13_05h42.29.777,change-localization,2020.1.2,Win32,60,,,,,,,,,
,,-0.096,-0.0904,1,0,0,5.65624,probe4,"[-0.1,-0.1]",0,2,2,2,1,3,probe1,0.05,0.05,-0.2,-0.2,#f0e442,#009e73,#FFFFFF,0.2,-0.1,#d55e00,#d55e00,#d55e00,-0.2,0,#4A4A4A,#4A4A4A,#4A4A4A,-0.1,-0.1,#0072b2,#0072b2,#0072b2,0,-0.1,#56b4e9,#56b4e9,#56b4e9,A1R56DJ485MV3E,001,2020-12-13_05h42.29.777,change-localization,2020.1.2,Win32,60,,,,,,,,,
,,-0.2192,0.1016,1,0,0,12.11592,probe5,"[-0.2,0.1]",0,3,3,3,1,4,probe1,0.05,0.05,0.2,0.2,#d55e00,#56b4e9,#FFFFFF,-0.2,0.2,#f0e442,#f0e442,#f0e442,0.2,-0.2,#0072b2,#0072b2,#0072b2,-0.2,0,#cc79a7,#cc79a7,#cc79a7,-0.2,0.1,#4A4A4A,#4A4A4A,#4A4A4A,A1R56DJ485MV3E,001,2020-12-13_05h42.29.777,change-localization,2020.1.2,Win32,60,,,,,,,,,
,,-0.1072,-0.1144,1,0,0,0.683345,probe4,"[-0.1,-0.1]",0,4,4,4,1,5,probe3,0.05,0.05,-0.2,0.1,#56b4e9,#56b4e9,#56b4e9,0,0.2,#009e73,#009e73,#009e73,0,0.1,#0072b2,#cc79a7,#FFFFFF,-0.1,-0.1,#4A4A4A,#4A4A4A,#4A4A4A,0.2,0,#f0e442,#f0e442,#f0e442,A1R56DJ485MV3E,001,2020-12-13_05h42.29.777,change-localization,2020.1.2,Win32,60,,,,,,,,,
,,-0.1888,-0.0008,1,0,0,0.533425,probe3,"[-0.2,0]",0,5,5,5,1,6,probe5,0.05,0.05,-0.1,0.1,#f0e442,#f0e442,#f0e442,0,0.1,#009e73,#009e73,#009e73,-0.2,0,#4A4A4A,#4A4A4A,#4A4A4A,0,-0.2,#d55e00,#d55e00,#d55e00,0.1,0,#cc79a7,#0072b2,#FFFFFF,A1R56DJ485MV3E,001,2020-12-13_05h42.29.777,change-localization,2020.1.2,Win32,60,,,,,,,,,
,,-0.2,-0.1896,1,0,0,0.499895,probe1,"[-0.2,-0.2]",0,6,6,6,1,7,probe2,0.05,0.05,-0.2,-0.2,#4A4A4A,#4A4A4A,#4A4A4A,0.1,0.2,#0072b2,#d55e00,#FFFFFF,-0.1,-0.2,#f0e442,#f0e442,#f0e442,-0.2,0.2,#009e73,#009e73,#009e73,0.2,0.2,#e69f00,#e69f00,#e69f00,A1R56DJ485MV3E,001,2020-12-13_05h42.29.777,change-localization,2020.1.2,Win32,60,,,,,,,,,
,,-0.0896,0.1016,1,0,0,0.67377,probe3,"[-0.1,0.1]",0,7,7,7,1,8,probe1,0.05,0.05,0.1,-0.2,#009e73,#f0e442,#FFFFFF,-0.1,0,#d55e00,#d55e00,#d55e00,-0.1,0.1,#4A4A4A,#4A4A4A,#4A4A4A,-0.2,0,#cc79a7,#cc79a7,#cc79a7,0.2,0,#e69f00,#e69f00,#e69f00,A1R56DJ485MV3E,001,2020-12-13_05h42.29.777,change-localization,2020.1.2,Win32,60,,,,,,,,,
,,0.1056,0.092,1,0,0,2.093345,probe5,"[0.1,0.1]",0,8,8,8,1,9,probe1,0.05,0.05,0.1,-0.2,#0072b2,#e69f00,#FFFFFF,-0.1,0.2,#f0e442,#f0e442,#f0e442,-0.2,0.1,#d55e00,#d55e00,#d55e00,0.2,0.2,#cc79a7,#cc79a7,#cc79a7,0.1,0.1,#56b4e9,#56b4e9,#56b4e9,A1R56DJ485MV3E,001,2020-12-13_05h42.29.777,change-localization,2020.1.2,Win32,60,,,,,,,,,
,,-0.1104,-0.1032,1,0,0,2.59961,probe1,"[-0.1,-0.1]",0,9,9,9,1,10,probe1,0.05,0.05,-0.1,-0.1,#4A4A4A,#f0e442,#FFFFFF,0,0.2,#cc79a7,#cc79a7,#cc79a7,0.2,-0.2,#e69f00,#e69f00,#e69f00,0.1,-0.2,#009e73,#009e73,#009e73,0.1,0.1,#d55e00,#d55e00,#d55e00,A1R56DJ485MV3E,001,2020-12-13_05h42.29.777,change-localization,2020.1.2,Win32,60,,,,,,,,,
,,-0.1008,0.0088,1,0,0,0.866815,probe3,"[-0.1,0]",,,,,,1,probe2,0.05,0.05,-0.2,0.2,#009e73,#009e73,,-0.1,0.2,#f0e442,#e69f00,,-0.1,0,#0072b2,#0072b2,,0,-0.2,#cc79a7,#cc79a7,,0,0.2,#d55e00,#d55e00,,A1R56DJ485MV3E,001,2020-12-13_05h42.29.777,change-localization,2020.1.2,Win32,60,c,7.604745,0,0,0,0,1,,
,,0.2048,0.0984,1,0,0,0.55043,probe2,"[0.2,0.1]",,,,,,2,probe5,0.05,0.05,0,0.1,#009e73,#009e73,,0.2,0.1,#4A4A4A,#4A4A4A,,-0.1,-0.1,#cc79a7,#cc79a7,,0.1,0.1,#d55e00,#d55e00,,0,-0.1,#56b4e9,#e69f00,,A1R56DJ485MV3E,001,2020-12-13_05h42.29.777,change-localization,2020.1.2,Win32,60,,,0,1,1,1,1,,
,,-0.088,0.0952,1,0,0,0.76118,probe4,"[-0.1,0.1]",,,,,,3,probe4,0.05,0.05,0.1,-0.1,#56b4e9,#56b4e9,,0.2,0,#f0e442,#f0e442,,0.2,-0.1,#e69f00,#e69f00,,-0.1,0.1,#4A4A4A,#009e73,,-0.1,0.2,#d55e00,#d55e00,,A1R56DJ485MV3E,001,2020-12-13_05h42.29.777,change-localization,2020.1.2,Win32,60,,,0,2,2,2,1,,
,,0.0048,0.188,1,0,0,0.413425,probe3,"[0,0.2]",,,,,,4,probe5,0.05,0.05,0.2,0,#56b4e9,#56b4e9,,-0.2,-0.2,#cc79a7,#cc79a7,,0,0.2,#4A4A4A,#4A4A4A,,0.2,-0.2,#e69f00,#e69f00,,-0.2,0,#f0e442,#009e73,,A1R56DJ485MV3E,001,2020-12-13_05h42.29.777,change-localization,2020.1.2,Win32,60,,,0,3,3,3,1,,
,,-0.1936,0.0888,1,0,0,0.51651,probe1,"[-0.2,0.1]",,,,,,5,probe3,0.05,0.05,-0.2,0.1,#4A4A4A,#4A4A4A,,0.2,0.2,#009e73,#009e73,,-0.1,-0.1,#0072b2,#f0e442,,0.2,0,#cc79a7,#cc79a7,,0.1,0.1,#e69f00,#e69f00,,A1R56DJ485MV3E,001,2020-12-13_05h42.29.777,change-localization,2020.1.2,Win32,60,,,0,4,4,4,1,,
,,0.0288,0.2072,1,0,0,0.83628,probe4,"[0,0.2]",,,,,,6,probe4,0.05,0.05,-0.1,0.1,#d55e00,#d55e00,,-0.2,0.2,#0072b2,#0072b2,,0,-0.1,#e69f00,#e69f00,,0,0.2,#56b4e9,#4A4A4A,,-0.2,-0.2,#009e73,#009e73,,A1R56DJ485MV3E,001,2020-12-13_05h42.29.777,change-localization,2020.1.2,Win32,60,,,0,5,5,5,1,,
,,0.1984,0.1896,1,0,0,1.16022,probe4,"[0.2,0.2]",,,,,,7,probe4,0.05,0.05,0.2,-0.1,#56b4e9,#56b4e9,,-0.1,-0.1,#e69f00,#e69f00,,-0.2,0.2,#009e73,#009e73,,0.2,0.2,#cc79a7,#4A4A4A,,0.2,-0.2,#d55e00,#d55e00,,A1R56DJ485MV3E,001,2020-12-13_05h42.29.777,change-localization,2020.1.2,Win32,60,,,0,6,6,6,1,,
,,0.1968,0.092,1,0,0,0.366705,probe3,"[0.2,0.1]",,,,,,8,probe4,0.05,0.05,-0.2,0.1,#e69f00,#e69f00,,0.1,0.2,#cc79a7,#cc79a7,,0.2,0.1,#4A4A4A,#4A4A4A,,-0.2,0.2,#56b4e9,#d55e00,,0.2,-0.1,#0072b2,#0072b2,,A1R56DJ485MV3E,001,2020-12-13_05h42.29.777,change-localization,2020.1.2,Win32,60,,,0,7,7,7,1,,
,,-0.0768,0.0024,1,0,0,0.54805,probe1,"[-0.1,0]",,,,,,9,probe5,0.05,0.05,-0.1,0,#4A4A4A,#4A4A4A,,0.1,0.1,#56b4e9,#56b4e9,,-0.2,0.1,#009e73,#009e73,,0.2,0.1,#cc79a7,#cc79a7,,0.2,0.2,#d55e00,#f0e442,,A1R56DJ485MV3E,001,2020-12-13_05h42.29.777,change-localization,2020.1.2,Win32,60,,,0,8,8,8,1,,
,,0.0048,0.0856,1,0,0,1.300885,probe3,"[0,0.1]",,,,,,10,probe3,0.05,0.05,0.2,0.2,#f0e442,#f0e442,,0.1,-0.1,#e69f00,#e69f00,,0,0.1,#cc79a7,#4A4A4A,,-0.2,0.1,#56b4e9,#56b4e9,,0.2,0,#0072b2,#0072b2,,A1R56DJ485MV3E,001,2020-12-13_05h42.29.777,change-localization,2020.1.2,Win32,60,,,0,9,9,9,1,,
,,0.2096,0.1896,1,0,0,1.00149,probe1,"[0.2,0.2]",,,,,,11,probe5,0.05,0.05,0.2,0.2,#4A4A4A,#4A4A4A,,0.1,0.2,#0072b2,#0072b2,,0.1,-0.1,#cc79a7,#cc79a7,,0,-0.2,#009e73,#009e73,,0.1,-0.2,#f0e442,#d55e00,,A1R56DJ485MV3E,001,2020-12-13_05h42.29.777,change-localization,2020.1.2,Win32,60,,,0,10,10,10,1,,
,,0.0016,-0.0936,1,0,0,3.58312,probe5,"[0,-0.1]",,,,,,12,probe4,0.05,0.05,-0.1,-0.1,#009e73,#009e73,,-0.1,0,#56b4e9,#56b4e9,,-0.1,-0.2,#0072b2,#0072b2,,0.1,0,#d55e00,#f0e442,,0,-0.1,#cc79a7,#cc79a7,,A1R56DJ485MV3E,001,2020-12-13_05h42.29.777,change-localization,2020.1.2,Win32,60,,,0,11,11,11,1,,
,,-0.2064,0.2136,1,0,0,1.103975,probe4,"[-0.2,0.2]",,,,,,13,probe4,0.05,0.05,0,-0.1,#f0e442,#f0e442,,0.1,-0.1,#d55e00,#d55e00,,0.1,0.1,#0072b2,#0072b2,,-0.2,0.2,#cc79a7,#4A4A4A,,0.1,0.2,#009e73,#009e73,,A1R56DJ485MV3E,001,2020-12-13_05h42.29.777,change-localization,2020.1.2,Win32,60,,,0,12,12,12,1,,
,,0.0128,-0.0904,1,0,0,0.66676,probe2,"[0,-0.1]",,,,,,14,probe5,0.05,0.05,0,0.2,#cc79a7,#cc79a7,,0,-0.1,#4A4A4A,#4A4A4A,,-0.2,0,#56b4e9,#56b4e9,,0.1,0.1,#0072b2,#0072b2,,0.1,0.2,#009e73,#e69f00,,A1R56DJ485MV3E,001,2020-12-13_05h42.29.777,change-localization,2020.1.2,Win32,60,,,0,13,13,13,1,,
,,0.1952,0.1048,1,0,0,1.33339,probe3,"[0.2,0.1]",,,,,,15,probe3,0.05,0.05,0.2,0.2,#cc79a7,#cc79a7,,0,0.2,#56b4e9,#56b4e9,,0.2,0.1,#d55e00,#4A4A4A,,0.1,-0.1,#f0e442,#f0e442,,0.2,-0.1,#0072b2,#0072b2,,A1R56DJ485MV3E,001,2020-12-13_05h42.29.777,change-localization,2020.1.2,Win32,60,,,0,14,14,14,1,,
,,0.0928,0.1112,1,0,0,0.886155,probe3,"[0.1,0.1]",,,,,,16,probe3,0.05,0.05,-0.2,-0.1,#f0e442,#f0e442,,-0.2,0.2,#d55e00,#d55e00,,0.1,0.1,#009e73,#4A4A4A,,-0.2,0.1,#56b4e9,#56b4e9,,0,-0.1,#cc79a7,#cc79a7,,A1R56DJ485MV3E,001,2020-12-13_05h42.29.777,change-localization,2020.1.2,Win32,60,,,0,15,15,15,1,,
,,0.2048,-0.1096,1,0,0,2.98336,probe1,"[0.2,-0.1]",,,,,,17,probe3,0.05,0.05,0.2,-0.1,#cc79a7,#cc79a7,,0,-0.2,#0072b2,#0072b2,,0,0.1,#4A4A4A,#e69f00,,-0.2,-0.1,#f0e442,#f0e442,,-0.1,-0.1,#009e73,#009e73,,A1R56DJ485MV3E,001,2020-12-13_05h42.29.777,change-localization,2020.1.2,Win32,60,,,0,16,16,16,1,,
,,-0.1968,0.1912,1,0,0,0.98346,probe5,"[-0.2,0.2]",,,,,,18,probe3,0.05,0.05,-0.1,0.1,#d55e00,#d55e00,,-0.1,0.2,#e69f00,#e69f00,,0.2,0,#009e73,#0072b2,,0.1,-0.1,#cc79a7,#cc79a7,,-0.2,0.2,#4A4A4A,#4A4A4A,,A1R56DJ485MV3E,001,2020-12-13_05h42.29.777,change-localization,2020.1.2,Win32,60,,,0,17,17,17,1,,
,,-0.0112,-0.0904,1,0,0,0.860045,probe2,"[0,-0.1]",,,,,,19,probe3,0.05,0.05,-0.1,0.2,#0072b2,#0072b2,,0,-0.1,#4A4A4A,#4A4A4A,,-0.1,0.1,#e69f00,#009e73,,0.2,0.1,#d55e00,#d55e00,,-0.2,0.1,#cc79a7,#cc79a7,,A1R56DJ485MV3E,001,2020-12-13_05h42.29.777,change-localization,2020.1.2,Win32,60,,,0,18,18,18,1,,
,,-0.0912,-0.0024,1,0,0,0.59859,probe5,"[-0.1,0]",,,,,,20,probe4,0.05,0.05,0.2,0,#56b4e9,#56b4e9,,-0.1,0.2,#009e73,#009e73,,-0.2,-0.2,#e69f00,#e69f00,,0,-0.1,#f0e442,#cc79a7,,-0.1,0,#4A4A4A,#4A4A4A,,A1R56DJ485MV3E,001,2020-12-13_05h42.29.777,change-localization,2020.1.2,Win32,60,,,0,19,19,19,1,,
,,0.2,-0.0072,1,0,0,1.5667,probe3,"[0.2,0]",,,,,,21,probe3,0.05,0.05,-0.1,0.1,#0072b2,#0072b2,,-0.1,0.2,#009e73,#009e73,,0.2,0,#56b4e9,#4A4A4A,,-0.2,0.2,#f0e442,#f0e442,,0.2,0.1,#d55e00,#d55e00,,A1R56DJ485MV3E,001,2020-12-13_05h42.29.777,change-localization,2020.1.2,Win32,60,,,0,20,20,20,1,,
,,-0.2,-0.1064,1,0,0,1.901505,probe4,"[-0.2,-0.1]",,,,,,22,probe4,0.05,0.05,0.2,-0.1,#d55e00,#d55e00,,0.2,0,#56b4e9,#56b4e9,,0.1,-0.2,#cc79a7,#cc79a7,,-0.2,-0.1,#4A4A4A,#009e73,,0,-0.2,#e69f00,#e69f00,,A1R56DJ485MV3E,001,2020-12-13_05h42.29.777,change-localization,2020.1.2,Win32,60,,,0,21,21,21,1,,
,,0.0912,-0.196,1,0,0,4.016655,probe5,"[0.1,-0.2]",,,,,,23,probe4,0.05,0.05,0.1,0.1,#56b4e9,#56b4e9,,-0.2,-0.1,#0072b2,#0072b2,,0.2,0,#d55e00,#d55e00,,-0.2,-0.2,#cc79a7,#009e73,,0.1,-0.2,#4A4A4A,#4A4A4A,,A1R56DJ485MV3E,001,2020-12-13_05h42.29.777,change-localization,2020.1.2,Win32,60,,,0,22,22,22,1,,
,,-0.1136,-0.196,1,0,0,0.533445,probe1,"[-0.1,-0.2]",,,,,,24,probe2,0.05,0.05,-0.1,-0.2,#4A4A4A,#4A4A4A,,0.2,0.2,#d55e00,#e69f00,,0.1,-0.1,#f0e442,#f0e442,,0.1,0.1,#56b4e9,#56b4e9,,-0.2,0.1,#cc79a7,#cc79a7,,A1R56DJ485MV3E,001,2020-12-13_05h42.29.777,change-localization,2020.1.2,Win32,60,,,0,23,23,23,1,,
,,-0.088,-0.1064,1,0,0,2.649535,probe2,"[-0.1,-0.1]",,,,,,25,probe3,0.05,0.05,-0.2,-0.2,#f0e442,#f0e442,,-0.1,-0.1,#4A4A4A,#4A4A4A,,0.2,0,#d55e00,#cc79a7,,0,0.2,#0072b2,#0072b2,,-0.2,0.1,#009e73,#009e73,,A1R56DJ485MV3E,001,2020-12-13_05h42.29.777,change-localization,2020.1.2,Win32,60,,,0,24,24,24,1,,
,,-0.2048,-0.1,1,0,0,0.701315,probe4,"[-0.2,-0.1]",,,,,,26,probe3,0.05,0.05,0.1,-0.1,#e69f00,#e69f00,,-0.2,0,#56b4e9,#56b4e9,,-0.1,-0.2,#009e73,#d55e00,,-0.2,-0.1,#4A4A4A,#4A4A4A,,0.1,0,#cc79a7,#cc79a7,,A1R56DJ485MV3E,001,2020-12-13_05h42.29.777,change-localization,2020.1.2,Win32,60,,,0,25,25,25,1,,
,,0.1792,-0.0056,1,0,0,2.01558,probe2,"[0.2,0]",,,,,,27,probe5,0.05,0.05,-0.1,-0.2,#009e73,#009e73,,0.2,0,#cc79a7,#cc79a7,,-0.1,-0.1,#e69f00,#e69f00,,0.1,0.1,#d55e00,#d55e00,,-0.2,-0.1,#4A4A4A,#0072b2,,A1R56DJ485MV3E,001,2020-12-13_05h42.29.777,change-localization,2020.1.2,Win32,60,,,0,26,26,26,1,,
,,-0.2064,0.1016,1,0,0,2.460425,probe2,"[-0.2,0.1]",,,,,,28,probe5,0.05,0.05,-0.1,0.2,#009e73,#009e73,,-0.2,0.1,#56b4e9,#56b4e9,,0,-0.2,#d55e00,#d55e00,,0.1,0,#0072b2,#0072b2,,0.1,0.1,#f0e442,#e69f00,,A1R56DJ485MV3E,001,2020-12-13_05h42.29.777,change-localization,2020.1.2,Win32,60,,,0,27,27,27,1,,
,,0.0896,-0.1112,1,0,0,4.196995,probe1,"[0.1,-0.1]",,,,,,29,probe1,0.05,0.05,0.1,-0.1,#4A4A4A,#56b4e9,,-0.2,0.2,#e69f00,#e69f00,,-0.1,-0.1,#f0e442,#f0e442,,0.1,0.2,#0072b2,#0072b2,,-0.1,-0.2,#cc79a7,#cc79a7,,A1R56DJ485MV3E,001,2020-12-13_05h42.29.777,change-localization,2020.1.2,Win32,60,,,0,28,28,28,1,,
,,-0.112,-0.2088,1,0,0,1.399905,probe2,"[-0.1,-0.2]",,,,,,30,probe2,0.05,0.05,0.1,0.2,#f0e442,#f0e442,,-0.1,-0.2,#d55e00,#4A4A4A,,0,-0.2,#cc79a7,#cc79a7,,0.1,-0.2,#0072b2,#0072b2,,-0.2,0,#009e73,#009e73,,A1R56DJ485MV3E,001,2020-12-13_05h42.29.777,change-localization,2020.1.2,Win32,60,,,0,29,29,29,1,,
,,-0.0992,-0.1176,1,0,0,1.115825,probe5,"[-0.1,-0.1]",,,,,,31,probe5,0.05,0.05,0,-0.2,#d55e00,#d55e00,,0.1,0,#e69f00,#e69f00,,0.1,0.2,#f0e442,#f0e442,,-0.2,-0.1,#cc79a7,#cc79a7,,-0.1,-0.1,#009e73,#4A4A4A,,A1R56DJ485MV3E,001,2020-12-13_05h42.29.777,change-localization,2020.1.2,Win32,60,,,0,30,30,30,1,,
,,-0.184,0.0936,1,0,0,0.68356,probe4,"[-0.2,0.1]",,,,,,32,probe3,0.05,0.05,0.2,0.2,#56b4e9,#56b4e9,,-0.1,-0.1,#009e73,#009e73,,0.2,0.1,#cc79a7,#0072b2,,-0.2,0.1,#4A4A4A,#4A4A4A,,-0.2,-0.1,#f0e442,#f0e442,,A1R56DJ485MV3E,001,2020-12-13_05h42.29.777,change-localization,2020.1.2,Win32,60,,,0,31,31,31,1,,
,,0.0944,0.108,1,0,0,3.479785,probe2,"[0.1,0.1]",,,,,,33,probe3,0.05,0.05,-0.1,-0.1,#0072b2,#0072b2,,0.1,0.1,#cc79a7,#cc79a7,,-0.1,0.1,#f0e442,#009e73,,0,-0.2,#56b4e9,#56b4e9,,0.1,0.2,#e69f00,#e69f00,,A1R56DJ485MV3E,001,2020-12-13_05h42.29.777,change-localization,2020.1.2,Win32,60,,,0,32,32,32,1,,
,,-0.2176,0.0984,1,0,0,1.23576,probe2,"[-0.2,0.1]",,,,,,34,probe5,0.05,0.05,0.2,0.1,#e69f00,#e69f00,,-0.2,0.1,#cc79a7,#cc79a7,,0.1,-0.2,#0072b2,#0072b2,,0.2,-0.2,#d55e00,#d55e00,,-0.2,0,#56b4e9,#009e73,,A1R56DJ485MV3E,001,2020-12-13_05h42.29.777,change-localization,2020.1.2,Win32,60,,,0,33,33,33,1,,
,,0.104,0.2024,1,0,0,1.132525,probe5,"[0.1,0.2]",,,,,,35,probe2,0.05,0.05,0.2,0,#56b4e9,#56b4e9,,0.2,-0.1,#e69f00,#009e73,,0.1,-0.1,#f0e442,#f0e442,,0,0.2,#d55e00,#d55e00,,0.1,0.2,#cc79a7,#cc79a7,,A1R56DJ485MV3E,001,2020-12-13_05h42.29.777,change-localization,2020.1.2,Win32,60,,,0,34,34,34,1,,
,,0.0064,0.0824,1,0,0,0.43905,probe1,"[0,0.1]",,,,,,36,probe3,0.05,0.05,0,0.1,#4A4A4A,#4A4A4A,,0.2,0.1,#009e73,#009e73,,-0.2,-0.1,#f0e442,#56b4e9,,-0.1,-0.1,#e69f00,#e69f00,,0.1,0,#0072b2,#0072b2,,A1R56DJ485MV3E,001,2020-12-13_05h42.29.777,change-localization,2020.1.2,Win32,60,,,0,35,35,35,1,,
,,0.0976,0.092,1,0,0,0.966835,probe2,"[0.1,0.1]",,,,,,37,probe5,0.05,0.05,-0.2,0.1,#e69f00,#e69f00,,0.1,0.1,#0072b2,#0072b2,,-0.2,0,#d55e00,#d55e00,,-0.1,0.2,#cc79a7,#cc79a7,,0.1,0,#009e73,#f0e442,,A1R56DJ485MV3E,001,2020-12-13_05h42.29.777,change-localization,2020.1.2,Win32,60,,,0,36,36,36,1,,
,,0.208,-0.204,1,0,0,0.866595,probe1,"[0.2,-0.2]",,,,,,38,probe4,0.05,0.05,0.2,-0.2,#4A4A4A,#4A4A4A,,0.2,0,#0072b2,#0072b2,,0.1,-0.1,#e69f00,#e69f00,,0.1,0,#d55e00,#cc79a7,,0,-0.1,#009e73,#009e73,,A1R56DJ485MV3E,001,2020-12-13_05h42.29.777,change-localization,2020.1.2,Win32,60,,,0,37,37,37,1,,
,,0.088,-0.1032,1,0,0,1.165155,probe1,"[0.1,-0.1]",,,,,,39,probe4,0.05,0.05,0.1,-0.1,#e69f00,#e69f00,,-0.2,-0.1,#cc79a7,#cc79a7,,0.2,0.1,#d55e00,#d55e00,,-0.2,0.2,#56b4e9,#f0e442,,0,-0.1,#0072b2,#0072b2,,A1R56DJ485MV3E,001,2020-12-13_05h42.29.777,change-localization,2020.1.2,Win32,60,,,0,38,38,38,1,,
,,-0.1888,0.0792,1,0,0,1.46302,probe1,"[-0.2,0.1]",,,,,,40,probe1,0.05,0.05,-0.2,0.1,#4A4A4A,#d55e00,,0.2,0.2,#009e73,#009e73,,-0.1,-0.1,#cc79a7,#cc79a7,,0.2,-0.2,#e69f00,#e69f00,,0.1,-0.1,#56b4e9,#56b4e9,,A1R56DJ485MV3E,001,2020-12-13_05h42.29.777,change-localization,2020.1.2,Win32,60,,,0,39,39,39,1,,
,,-0.1904,-0.108,1,0,0,0.533455,probe2,"[-0.2,-0.1]",,,,,,41,probe4,0.05,0.05,0.2,0.1,#009e73,#009e73,,-0.2,-0.1,#0072b2,#0072b2,,-0.2,-0.2,#56b4e9,#56b4e9,,-0.1,0,#f0e442,#cc79a7,,0,-0.2,#d55e00,#d55e00,,A1R56DJ485MV3E,001,2020-12-13_05h42.29.777,change-localization,2020.1.2,Win32,60,,,0,40,40,40,1,,
,,-0.0992,0.0056,1,0,0,0.416925,probe5,"[-0.1,0]",,,,,,42,probe4,0.05,0.05,-0.1,-0.2,#009e73,#009e73,,-0.1,0.1,#cc79a7,#cc79a7,,0.1,0.1,#56b4e9,#56b4e9,,0,-0.2,#e69f00,#d55e00,,-0.1,0,#0072b2,#0072b2,,A1R56DJ485MV3E,001,2020-12-13_05h42.29.777,change-localization,2020.1.2,Win32,60,,,0,41,41,41,1,,
,,-0.2,0.0952,1,0,0,0.599905,probe5,"[-0.2,0.1]",,,,,,43,probe1,0.05,0.05,0.2,-0.1,#e69f00,#009e73,,0.1,0,#cc79a7,#cc79a7,,-0.2,-0.2,#f0e442,#f0e442,,0.2,-0.2,#56b4e9,#56b4e9,,-0.2,0.1,#4A4A4A,#4A4A4A,,A1R56DJ485MV3E,001,2020-12-13_05h42.29.777,change-localization,2020.1.2,Win32,60,,,0,42,42,42,1,,
,,0.2016,0.0856,1,0,0,0.666505,probe2,"[0.2,0.1]",,,,,,44,probe1,0.05,0.05,-0.1,0.2,#56b4e9,#e69f00,,0.2,0.1,#4A4A4A,#4A4A4A,,0.1,0,#cc79a7,#cc79a7,,0.1,0.2,#f0e442,#f0e442,,-0.1,-0.1,#d55e00,#d55e00,,A1R56DJ485MV3E,001,2020-12-13_05h42.29.777,change-localization,2020.1.2,Win32,60,,,0,43,43,43,1,,
,,-0.2128,-0.1096,1,0,0,1.49997,probe2,"[-0.2,-0.1]",,,,,,45,probe3,0.05,0.05,-0.2,0.2,#0072b2,#0072b2,,-0.2,-0.1,#56b4e9,#56b4e9,,-0.1,0.1,#f0e442,#e69f00,,-0.1,0.2,#d55e00,#d55e00,,0,-0.2,#cc79a7,#cc79a7,,A1R56DJ485MV3E,001,2020-12-13_05h42.29.777,change-localization,2020.1.2,Win32,60,,,0,44,44,44,1,,
,,0.2064,0.1864,1,0,0,0.598505,probe4,"[0.2,0.2]",,,,,,46,probe5,0.05,0.05,0.2,0.1,#0072b2,#0072b2,,0.1,0.2,#f0e442,#f0e442,,0.2,-0.2,#009e73,#009e73,,0.2,0.2,#4A4A4A,#4A4A4A,,0.2,0,#cc79a7,#e69f00,,A1R56DJ485MV3E,001,2020-12-13_05h42.29.777,change-localization,2020.1.2,Win32,60,,,0,45,45,45,1,,
,,-0.1072,0.1928,1,0,0,0.64788,probe4,"[-0.1,0.2]",,,,,,47,probe3,0.05,0.05,0,-0.1,#009e73,#009e73,,-0.2,0.2,#f0e442,#f0e442,,0.2,0.2,#56b4e9,#cc79a7,,-0.1,0.2,#4A4A4A,#4A4A4A,,-0.1,0.1,#e69f00,#e69f00,,A1R56DJ485MV3E,001,2020-12-13_05h42.29.777,change-localization,2020.1.2,Win32,60,,,0,46,46,46,1,,
,,-0.1952,-0.1064,1,0,0,2.134025,probe4,"[-0.2,-0.1]",,,,,,48,probe4,0.05,0.05,0.2,-0.2,#cc79a7,#cc79a7,,-0.1,0.1,#009e73,#009e73,,0.1,-0.2,#f0e442,#f0e442,,-0.2,-0.1,#d55e00,#0072b2,,-0.1,0,#56b4e9,#56b4e9,,A1R56DJ485MV3E,001,2020-12-13_05h42.29.777,change-localization,2020.1.2,Win32,60,,,0,47,47,47,1,,
,,0.0992,0.212,1,0,0,1.23211,probe4,"[0.1,0.2]",,,,,,49,probe2,0.05,0.05,0,-0.2,#e69f00,#e69f00,,-0.2,0,#cc79a7,#0072b2,,-0.1,0.2,#f0e442,#f0e442,,0.1,0.2,#4A4A4A,#4A4A4A,,-0.1,-0.1,#56b4e9,#56b4e9,,A1R56DJ485MV3E,001,2020-12-13_05h42.29.777,change-localization,2020.1.2,Win32,60,,,0,48,48,48,1,,
,,0.1952,0.0808,1,0,0,1.70091,probe1,"[0.2,0.1]",,,,,,50,probe4,0.05,0.05,0.2,0.1,#0072b2,#0072b2,,0.1,0.1,#cc79a7,#cc79a7,,0.1,-0.2,#56b4e9,#56b4e9,,-0.1,0,#009e73,#e69f00,,0,0.1,#d55e00,#d55e00,,A1R56DJ485MV3E,001,2020-12-13_05h42.29.777,change-localization,2020.1.2,Win32,60,,,0,49,49,49,1,,
,,,,,,,,,,,,,,,,,,,,,,,,,,,,,,,,,,,,,,,,,,,,A1R56DJ485MV3E,001,2020-12-13_05h42.29.777,change-localization,2020.1.2,Win32,60,,,,,,,,c,18.3144
