key_resp.keys,key_resp.rt,mouse.x,mouse.y,mouse.leftButton,mouse.midButton,mouse.rightButton,mouse.time,mouse.clicked_name,mouse.clicked_pos,training.thisRepN,training.thisTrialN,training.thisN,training.thisIndex,training.ran,trial,answer,height,width,x1,y1,stim_color1,probe_color1,copy_color1,x2,y2,stim_color2,probe_color2,copy_color2,x3,y3,stim_color3,probe_color3,copy_color3,x4,y4,stim_color4,probe_color4,copy_color4,x5,y5,stim_color5,probe_color5,copy_color5,participant,session,date,expName,psychopyVersion,OS,frameRate,key_resp_2.keys,key_resp_2.rt,trials.thisRepN,trials.thisTrialN,trials.thisN,trials.thisIndex,trials.ran,completion_keys.keys,completion_keys.rt
c,11.96278,0.2,-0.119444444,1,0,0,0.871905,probe4,"[0.2,-0.1]",0,0,0,0,1,1,probe4,0.05,0.05,0.1,0.2,#0072b2,#0072b2,#0072b2,0.1,-0.1,#e69f00,#e69f00,#e69f00,-0.1,-0.2,#cc79a7,#cc79a7,#cc79a7,0.2,-0.1,#4A4A4A,#f0e442,#FFFFFF,0.2,0,#009e73,#009e73,#009e73,A1ROEDVMTO9Y3X,001,2020-12-12_18h44.47.908,change-localization,2020.1.2,Win32,60,,,,,,,,,
,,0.198148148,0.021296296,1,0,0,1.1862,probe1,"[0.2,0]",0,1,1,1,1,2,probe1,0.05,0.05,0.2,0,#d55e00,#009e73,#FFFFFF,0.2,-0.1,#e69f00,#e69f00,#e69f00,0.1,0,#4A4A4A,#4A4A4A,#4A4A4A,-0.1,0.1,#56b4e9,#56b4e9,#56b4e9,-0.1,0,#cc79a7,#cc79a7,#cc79a7,A1ROEDVMTO9Y3X,001,2020-12-12_18h44.47.908,change-localization,2020.1.2,Win32,60,,,,,,,,,
,,-0.091666667,-0.115740741,1,0,0,1.1003,probe4,"[-0.1,-0.1]",0,2,2,2,1,3,probe1,0.05,0.05,-0.2,-0.2,#f0e442,#009e73,#FFFFFF,0.2,-0.1,#d55e00,#d55e00,#d55e00,-0.2,0,#4A4A4A,#4A4A4A,#4A4A4A,-0.1,-0.1,#0072b2,#0072b2,#0072b2,0,-0.1,#56b4e9,#56b4e9,#56b4e9,A1ROEDVMTO9Y3X,001,2020-12-12_18h44.47.908,change-localization,2020.1.2,Win32,60,,,,,,,,,
,,0.212037037,-0.213888889,1,0,0,1.435745,probe3,"[0.2,-0.2]",0,3,3,3,1,4,probe1,0.05,0.05,0.2,0.2,#d55e00,#56b4e9,#FFFFFF,-0.2,0.2,#f0e442,#f0e442,#f0e442,0.2,-0.2,#0072b2,#0072b2,#0072b2,-0.2,0,#cc79a7,#cc79a7,#cc79a7,-0.2,0.1,#4A4A4A,#4A4A4A,#4A4A4A,A1ROEDVMTO9Y3X,001,2020-12-12_18h44.47.908,change-localization,2020.1.2,Win32,60,,,,,,,,,
,,0.006481481,0.09537037,1,0,0,1.703675,probe3,"[0,0.1]",0,4,4,4,1,5,probe3,0.05,0.05,-0.2,0.1,#56b4e9,#56b4e9,#56b4e9,0,0.2,#009e73,#009e73,#009e73,0,0.1,#0072b2,#cc79a7,#FFFFFF,-0.1,-0.1,#4A4A4A,#4A4A4A,#4A4A4A,0.2,0,#f0e442,#f0e442,#f0e442,A1ROEDVMTO9Y3X,001,2020-12-12_18h44.47.908,change-localization,2020.1.2,Win32,60,,,,,,,,,
,,0.124074074,-0.010185185,1,0,0,1.37851,probe5,"[0.1,0]",0,5,5,5,1,6,probe5,0.05,0.05,-0.1,0.1,#f0e442,#f0e442,#f0e442,0,0.1,#009e73,#009e73,#009e73,-0.2,0,#4A4A4A,#4A4A4A,#4A4A4A,0,-0.2,#d55e00,#d55e00,#d55e00,0.1,0,#cc79a7,#0072b2,#FFFFFF,A1ROEDVMTO9Y3X,001,2020-12-12_18h44.47.908,change-localization,2020.1.2,Win32,60,,,,,,,,,
,,0.086111111,0.180555556,1,0,0,1.25022,probe2,"[0.1,0.2]",0,6,6,6,1,7,probe2,0.05,0.05,-0.2,-0.2,#4A4A4A,#4A4A4A,#4A4A4A,0.1,0.2,#0072b2,#d55e00,#FFFFFF,-0.1,-0.2,#f0e442,#f0e442,#f0e442,-0.2,0.2,#009e73,#009e73,#009e73,0.2,0.2,#e69f00,#e69f00,#e69f00,A1ROEDVMTO9Y3X,001,2020-12-12_18h44.47.908,change-localization,2020.1.2,Win32,60,,,,,,,,,
,,0.089814815,-0.183333333,1,0,0,1.4285,probe1,"[0.1,-0.2]",0,7,7,7,1,8,probe1,0.05,0.05,0.1,-0.2,#009e73,#f0e442,#FFFFFF,-0.1,0,#d55e00,#d55e00,#d55e00,-0.1,0.1,#4A4A4A,#4A4A4A,#4A4A4A,-0.2,0,#cc79a7,#cc79a7,#cc79a7,0.2,0,#e69f00,#e69f00,#e69f00,A1ROEDVMTO9Y3X,001,2020-12-12_18h44.47.908,change-localization,2020.1.2,Win32,60,,,,,,,,,
,,0.119444444,-0.203703704,1,0,0,1.21692,probe1,"[0.1,-0.2]",0,8,8,8,1,9,probe1,0.05,0.05,0.1,-0.2,#0072b2,#e69f00,#FFFFFF,-0.1,0.2,#f0e442,#f0e442,#f0e442,-0.2,0.1,#d55e00,#d55e00,#d55e00,0.2,0.2,#cc79a7,#cc79a7,#cc79a7,0.1,0.1,#56b4e9,#56b4e9,#56b4e9,A1ROEDVMTO9Y3X,001,2020-12-12_18h44.47.908,change-localization,2020.1.2,Win32,60,,,,,,,,,
,,-0.097222222,-0.105555556,1,0,0,1.51681,probe1,"[-0.1,-0.1]",0,9,9,9,1,10,probe1,0.05,0.05,-0.1,-0.1,#4A4A4A,#f0e442,#FFFFFF,0,0.2,#cc79a7,#cc79a7,#cc79a7,0.2,-0.2,#e69f00,#e69f00,#e69f00,0.1,-0.2,#009e73,#009e73,#009e73,0.1,0.1,#d55e00,#d55e00,#d55e00,A1ROEDVMTO9Y3X,001,2020-12-12_18h44.47.908,change-localization,2020.1.2,Win32,60,,,,,,,,,
,,-0.000925926,-0.169444444,1,0,0,0.967815,probe4,"[0,-0.2]",,,,,,1,probe2,0.05,0.05,-0.2,0.2,#009e73,#009e73,,-0.1,0.2,#f0e442,#e69f00,,-0.1,0,#0072b2,#0072b2,,0,-0.2,#cc79a7,#cc79a7,,0,0.2,#d55e00,#d55e00,,A1ROEDVMTO9Y3X,001,2020-12-12_18h44.47.908,change-localization,2020.1.2,Win32,60,c,22.093055,0,0,0,0,1,,
,,-0.014814815,-0.115740741,1,0,0,2.40124,probe5,"[0,-0.1]",,,,,,2,probe5,0.05,0.05,0,0.1,#009e73,#009e73,,0.2,0.1,#4A4A4A,#4A4A4A,,-0.1,-0.1,#cc79a7,#cc79a7,,0.1,0.1,#d55e00,#d55e00,,0,-0.1,#56b4e9,#e69f00,,A1ROEDVMTO9Y3X,001,2020-12-12_18h44.47.908,change-localization,2020.1.2,Win32,60,,,0,1,1,1,1,,
,,-0.069444444,0.113888889,1,0,0,1.366835,probe4,"[-0.1,0.1]",,,,,,3,probe4,0.05,0.05,0.1,-0.1,#56b4e9,#56b4e9,,0.2,0,#f0e442,#f0e442,,0.2,-0.1,#e69f00,#e69f00,,-0.1,0.1,#4A4A4A,#009e73,,-0.1,0.2,#d55e00,#d55e00,,A1ROEDVMTO9Y3X,001,2020-12-12_18h44.47.908,change-localization,2020.1.2,Win32,60,,,0,2,2,2,1,,
,,-0.201851852,0.005555556,1,0,0,1.043205,probe5,"[-0.2,0]",,,,,,4,probe5,0.05,0.05,0.2,0,#56b4e9,#56b4e9,,-0.2,-0.2,#cc79a7,#cc79a7,,0,0.2,#4A4A4A,#4A4A4A,,0.2,-0.2,#e69f00,#e69f00,,-0.2,0,#f0e442,#009e73,,A1ROEDVMTO9Y3X,001,2020-12-12_18h44.47.908,change-localization,2020.1.2,Win32,60,,,0,3,3,3,1,,
,,-0.131481481,-0.090740741,1,0,0,1.366485,probe3,"[-0.1,-0.1]",,,,,,5,probe3,0.05,0.05,-0.2,0.1,#4A4A4A,#4A4A4A,,0.2,0.2,#009e73,#009e73,,-0.1,-0.1,#0072b2,#f0e442,,0.2,0,#cc79a7,#cc79a7,,0.1,0.1,#e69f00,#e69f00,,A1ROEDVMTO9Y3X,001,2020-12-12_18h44.47.908,change-localization,2020.1.2,Win32,60,,,0,4,4,4,1,,
,,-0.17962963,-0.203703704,1,0,0,1.30101,probe5,"[-0.2,-0.2]",,,,,,6,probe4,0.05,0.05,-0.1,0.1,#d55e00,#d55e00,,-0.2,0.2,#0072b2,#0072b2,,0,-0.1,#e69f00,#e69f00,,0,0.2,#56b4e9,#4A4A4A,,-0.2,-0.2,#009e73,#009e73,,A1ROEDVMTO9Y3X,001,2020-12-12_18h44.47.908,change-localization,2020.1.2,Win32,60,,,0,5,5,5,1,,
,,0.210185185,0.203703704,1,0,0,1.55016,probe4,"[0.2,0.2]",,,,,,7,probe4,0.05,0.05,0.2,-0.1,#56b4e9,#56b4e9,,-0.1,-0.1,#e69f00,#e69f00,,-0.2,0.2,#009e73,#009e73,,0.2,0.2,#cc79a7,#4A4A4A,,0.2,-0.2,#d55e00,#d55e00,,A1ROEDVMTO9Y3X,001,2020-12-12_18h44.47.908,change-localization,2020.1.2,Win32,60,,,0,6,6,6,1,,
,,-0.237037037,0.201851852,1,0,0,1.266715,probe4,"[-0.2,0.2]",,,,,,8,probe4,0.05,0.05,-0.2,0.1,#e69f00,#e69f00,,0.1,0.2,#cc79a7,#cc79a7,,0.2,0.1,#4A4A4A,#4A4A4A,,-0.2,0.2,#56b4e9,#d55e00,,0.2,-0.1,#0072b2,#0072b2,,A1ROEDVMTO9Y3X,001,2020-12-12_18h44.47.908,change-localization,2020.1.2,Win32,60,,,0,7,7,7,1,,
,,0.196296296,0.175,1,0,0,1.40981,probe5,"[0.2,0.2]",,,,,,9,probe5,0.05,0.05,-0.1,0,#4A4A4A,#4A4A4A,,0.1,0.1,#56b4e9,#56b4e9,,-0.2,0.1,#009e73,#009e73,,0.2,0.1,#cc79a7,#cc79a7,,0.2,0.2,#d55e00,#f0e442,,A1ROEDVMTO9Y3X,001,2020-12-12_18h44.47.908,change-localization,2020.1.2,Win32,60,,,0,8,8,8,1,,
,,0.176851852,0.02037037,1,0,0,0.92783,probe5,"[0.2,0]",,,,,,10,probe3,0.05,0.05,0.2,0.2,#f0e442,#f0e442,,0.1,-0.1,#e69f00,#e69f00,,0,0.1,#cc79a7,#4A4A4A,,-0.2,0.1,#56b4e9,#56b4e9,,0.2,0,#0072b2,#0072b2,,A1ROEDVMTO9Y3X,001,2020-12-12_18h44.47.908,change-localization,2020.1.2,Win32,60,,,0,9,9,9,1,,
,,0.087037037,-0.175925926,1,0,0,1.207975,probe5,"[0.1,-0.2]",,,,,,11,probe5,0.05,0.05,0.2,0.2,#4A4A4A,#4A4A4A,,0.1,0.2,#0072b2,#0072b2,,0.1,-0.1,#cc79a7,#cc79a7,,0,-0.2,#009e73,#009e73,,0.1,-0.2,#f0e442,#d55e00,,A1ROEDVMTO9Y3X,001,2020-12-12_18h44.47.908,change-localization,2020.1.2,Win32,60,,,0,10,10,10,1,,
,,0.100925926,-0.011111111,1,0,0,0.84955,probe4,"[0.1,0]",,,,,,12,probe4,0.05,0.05,-0.1,-0.1,#009e73,#009e73,,-0.1,0,#56b4e9,#56b4e9,,-0.1,-0.2,#0072b2,#0072b2,,0.1,0,#d55e00,#f0e442,,0,-0.1,#cc79a7,#cc79a7,,A1ROEDVMTO9Y3X,001,2020-12-12_18h44.47.908,change-localization,2020.1.2,Win32,60,,,0,11,11,11,1,,
,,0.116666667,-0.101851852,1,0,0,0.699905,probe2,"[0.1,-0.1]",,,,,,13,probe4,0.05,0.05,0,-0.1,#f0e442,#f0e442,,0.1,-0.1,#d55e00,#d55e00,,0.1,0.1,#0072b2,#0072b2,,-0.2,0.2,#cc79a7,#4A4A4A,,0.1,0.2,#009e73,#009e73,,A1ROEDVMTO9Y3X,001,2020-12-12_18h44.47.908,change-localization,2020.1.2,Win32,60,,,0,12,12,12,1,,
,,0.089814815,0.187962963,1,0,0,1.816875,probe5,"[0.1,0.2]",,,,,,14,probe5,0.05,0.05,0,0.2,#cc79a7,#cc79a7,,0,-0.1,#4A4A4A,#4A4A4A,,-0.2,0,#56b4e9,#56b4e9,,0.1,0.1,#0072b2,#0072b2,,0.1,0.2,#009e73,#e69f00,,A1ROEDVMTO9Y3X,001,2020-12-12_18h44.47.908,change-localization,2020.1.2,Win32,60,,,0,13,13,13,1,,
,,0.187962963,0.106481481,1,0,0,4.128405,probe3,"[0.2,0.1]",,,,,,15,probe3,0.05,0.05,0.2,0.2,#cc79a7,#cc79a7,,0,0.2,#56b4e9,#56b4e9,,0.2,0.1,#d55e00,#4A4A4A,,0.1,-0.1,#f0e442,#f0e442,,0.2,-0.1,#0072b2,#0072b2,,A1ROEDVMTO9Y3X,001,2020-12-12_18h44.47.908,change-localization,2020.1.2,Win32,60,,,0,14,14,14,1,,
,,-0.225925926,0.12962963,1,0,0,9.109255,probe4,"[-0.2,0.1]",,,,,,16,probe3,0.05,0.05,-0.2,-0.1,#f0e442,#f0e442,,-0.2,0.2,#d55e00,#d55e00,,0.1,0.1,#009e73,#4A4A4A,,-0.2,0.1,#56b4e9,#56b4e9,,0,-0.1,#cc79a7,#cc79a7,,A1ROEDVMTO9Y3X,001,2020-12-12_18h44.47.908,change-localization,2020.1.2,Win32,60,,,0,15,15,15,1,,
,,-0.025925926,0.098148148,1,0,0,1.911455,probe3,"[0,0.1]",,,,,,17,probe3,0.05,0.05,0.2,-0.1,#cc79a7,#cc79a7,,0,-0.2,#0072b2,#0072b2,,0,0.1,#4A4A4A,#e69f00,,-0.2,-0.1,#f0e442,#f0e442,,-0.1,-0.1,#009e73,#009e73,,A1ROEDVMTO9Y3X,001,2020-12-12_18h44.47.908,change-localization,2020.1.2,Win32,60,,,0,16,16,16,1,,
,,0.117592593,-0.130555556,1,0,0,0.933425,probe4,"[0.1,-0.1]",,,,,,18,probe3,0.05,0.05,-0.1,0.1,#d55e00,#d55e00,,-0.1,0.2,#e69f00,#e69f00,,0.2,0,#009e73,#0072b2,,0.1,-0.1,#cc79a7,#cc79a7,,-0.2,0.2,#4A4A4A,#4A4A4A,,A1ROEDVMTO9Y3X,001,2020-12-12_18h44.47.908,change-localization,2020.1.2,Win32,60,,,0,17,17,17,1,,
,,-0.089814815,0.081481481,1,0,0,1.248115,probe3,"[-0.1,0.1]",,,,,,19,probe3,0.05,0.05,-0.1,0.2,#0072b2,#0072b2,,0,-0.1,#4A4A4A,#4A4A4A,,-0.1,0.1,#e69f00,#009e73,,0.2,0.1,#d55e00,#d55e00,,-0.2,0.1,#cc79a7,#cc79a7,,A1ROEDVMTO9Y3X,001,2020-12-12_18h44.47.908,change-localization,2020.1.2,Win32,60,,,0,18,18,18,1,,
,,-0.010185185,-0.105555556,1,0,0,1.076,probe4,"[0,-0.1]",,,,,,20,probe4,0.05,0.05,0.2,0,#56b4e9,#56b4e9,,-0.1,0.2,#009e73,#009e73,,-0.2,-0.2,#e69f00,#e69f00,,0,-0.1,#f0e442,#cc79a7,,-0.1,0,#4A4A4A,#4A4A4A,,A1ROEDVMTO9Y3X,001,2020-12-12_18h44.47.908,change-localization,2020.1.2,Win32,60,,,0,19,19,19,1,,
,,0.201851852,-0.001851852,1,0,0,1.14148,probe3,"[0.2,0]",,,,,,21,probe3,0.05,0.05,-0.1,0.1,#0072b2,#0072b2,,-0.1,0.2,#009e73,#009e73,,0.2,0,#56b4e9,#4A4A4A,,-0.2,0.2,#f0e442,#f0e442,,0.2,0.1,#d55e00,#d55e00,,A1ROEDVMTO9Y3X,001,2020-12-12_18h44.47.908,change-localization,2020.1.2,Win32,60,,,0,20,20,20,1,,
,,0.090740741,-0.192592593,1,0,0,1.093215,probe3,"[0.1,-0.2]",,,,,,22,probe4,0.05,0.05,0.2,-0.1,#d55e00,#d55e00,,0.2,0,#56b4e9,#56b4e9,,0.1,-0.2,#cc79a7,#cc79a7,,-0.2,-0.1,#4A4A4A,#009e73,,0,-0.2,#e69f00,#e69f00,,A1ROEDVMTO9Y3X,001,2020-12-12_18h44.47.908,change-localization,2020.1.2,Win32,60,,,0,21,21,21,1,,
,,0.091666667,-0.184259259,1,0,0,0.961935,probe5,"[0.1,-0.2]",,,,,,23,probe4,0.05,0.05,0.1,0.1,#56b4e9,#56b4e9,,-0.2,-0.1,#0072b2,#0072b2,,0.2,0,#d55e00,#d55e00,,-0.2,-0.2,#cc79a7,#009e73,,0.1,-0.2,#4A4A4A,#4A4A4A,,A1ROEDVMTO9Y3X,001,2020-12-12_18h44.47.908,change-localization,2020.1.2,Win32,60,,,0,22,22,22,1,,
,,-0.106481481,-0.188888889,1,0,0,0.949895,probe1,"[-0.1,-0.2]",,,,,,24,probe2,0.05,0.05,-0.1,-0.2,#4A4A4A,#4A4A4A,,0.2,0.2,#d55e00,#e69f00,,0.1,-0.1,#f0e442,#f0e442,,0.1,0.1,#56b4e9,#56b4e9,,-0.2,0.1,#cc79a7,#cc79a7,,A1ROEDVMTO9Y3X,001,2020-12-12_18h44.47.908,change-localization,2020.1.2,Win32,60,,,0,23,23,23,1,,
,,-0.22037037,0.100925926,1,0,0,0.6808,probe5,"[-0.2,0.1]",,,,,,25,probe3,0.05,0.05,-0.2,-0.2,#f0e442,#f0e442,,-0.1,-0.1,#4A4A4A,#4A4A4A,,0.2,0,#d55e00,#cc79a7,,0,0.2,#0072b2,#0072b2,,-0.2,0.1,#009e73,#009e73,,A1ROEDVMTO9Y3X,001,2020-12-12_18h44.47.908,change-localization,2020.1.2,Win32,60,,,0,24,24,24,1,,
,,-0.200925926,-0.107407407,1,0,0,1.37645,probe4,"[-0.2,-0.1]",,,,,,26,probe3,0.05,0.05,0.1,-0.1,#e69f00,#e69f00,,-0.2,0,#56b4e9,#56b4e9,,-0.1,-0.2,#009e73,#d55e00,,-0.2,-0.1,#4A4A4A,#4A4A4A,,0.1,0,#cc79a7,#cc79a7,,A1ROEDVMTO9Y3X,001,2020-12-12_18h44.47.908,change-localization,2020.1.2,Win32,60,,,0,25,25,25,1,,
,,0.067592593,0.103703704,1,0,0,1.783,probe4,"[0.1,0.1]",,,,,,27,probe5,0.05,0.05,-0.1,-0.2,#009e73,#009e73,,0.2,0,#cc79a7,#cc79a7,,-0.1,-0.1,#e69f00,#e69f00,,0.1,0.1,#d55e00,#d55e00,,-0.2,-0.1,#4A4A4A,#0072b2,,A1ROEDVMTO9Y3X,001,2020-12-12_18h44.47.908,change-localization,2020.1.2,Win32,60,,,0,26,26,26,1,,
,,0.102777778,0.002777778,1,0,0,0.433835,probe4,"[0.1,0]",,,,,,28,probe5,0.05,0.05,-0.1,0.2,#009e73,#009e73,,-0.2,0.1,#56b4e9,#56b4e9,,0,-0.2,#d55e00,#d55e00,,0.1,0,#0072b2,#0072b2,,0.1,0.1,#f0e442,#e69f00,,A1ROEDVMTO9Y3X,001,2020-12-12_18h44.47.908,change-localization,2020.1.2,Win32,60,,,0,27,27,27,1,,
,,-0.097222222,-0.122222222,1,0,0,1.340905,probe3,"[-0.1,-0.1]",,,,,,29,probe1,0.05,0.05,0.1,-0.1,#4A4A4A,#56b4e9,,-0.2,0.2,#e69f00,#e69f00,,-0.1,-0.1,#f0e442,#f0e442,,0.1,0.2,#0072b2,#0072b2,,-0.1,-0.2,#cc79a7,#cc79a7,,A1ROEDVMTO9Y3X,001,2020-12-12_18h44.47.908,change-localization,2020.1.2,Win32,60,,,0,28,28,28,1,,
,,-0.012962963,-0.191666667,1,0,0,1.850905,probe3,"[0,-0.2]",,,,,,30,probe2,0.05,0.05,0.1,0.2,#f0e442,#f0e442,,-0.1,-0.2,#d55e00,#4A4A4A,,0,-0.2,#cc79a7,#cc79a7,,0.1,-0.2,#0072b2,#0072b2,,-0.2,0,#009e73,#009e73,,A1ROEDVMTO9Y3X,001,2020-12-12_18h44.47.908,change-localization,2020.1.2,Win32,60,,,0,29,29,29,1,,
,,-0.138888889,-0.100925926,1,0,0,1.07597,probe5,"[-0.1,-0.1]",,,,,,31,probe5,0.05,0.05,0,-0.2,#d55e00,#d55e00,,0.1,0,#e69f00,#e69f00,,0.1,0.2,#f0e442,#f0e442,,-0.2,-0.1,#cc79a7,#cc79a7,,-0.1,-0.1,#009e73,#4A4A4A,,A1ROEDVMTO9Y3X,001,2020-12-12_18h44.47.908,change-localization,2020.1.2,Win32,60,,,0,30,30,30,1,,
,,0.212037037,0.1,1,0,0,1.126195,probe3,"[0.2,0.1]",,,,,,32,probe3,0.05,0.05,0.2,0.2,#56b4e9,#56b4e9,,-0.1,-0.1,#009e73,#009e73,,0.2,0.1,#cc79a7,#0072b2,,-0.2,0.1,#4A4A4A,#4A4A4A,,-0.2,-0.1,#f0e442,#f0e442,,A1ROEDVMTO9Y3X,001,2020-12-12_18h44.47.908,change-localization,2020.1.2,Win32,60,,,0,31,31,31,1,,
,,-0.009259259,-0.200925926,1,0,0,1.56096,probe4,"[0,-0.2]",,,,,,33,probe3,0.05,0.05,-0.1,-0.1,#0072b2,#0072b2,,0.1,0.1,#cc79a7,#cc79a7,,-0.1,0.1,#f0e442,#009e73,,0,-0.2,#56b4e9,#56b4e9,,0.1,0.2,#e69f00,#e69f00,,A1ROEDVMTO9Y3X,001,2020-12-12_18h44.47.908,change-localization,2020.1.2,Win32,60,,,0,32,32,32,1,,
,,0.211111111,-0.196296296,1,0,0,1.249785,probe4,"[0.2,-0.2]",,,,,,34,probe5,0.05,0.05,0.2,0.1,#e69f00,#e69f00,,-0.2,0.1,#cc79a7,#cc79a7,,0.1,-0.2,#0072b2,#0072b2,,0.2,-0.2,#d55e00,#d55e00,,-0.2,0,#56b4e9,#009e73,,A1ROEDVMTO9Y3X,001,2020-12-12_18h44.47.908,change-localization,2020.1.2,Win32,60,,,0,33,33,33,1,,
,,0.112962963,-0.10462963,1,0,0,1.313415,probe3,"[0.1,-0.1]",,,,,,35,probe2,0.05,0.05,0.2,0,#56b4e9,#56b4e9,,0.2,-0.1,#e69f00,#009e73,,0.1,-0.1,#f0e442,#f0e442,,0,0.2,#d55e00,#d55e00,,0.1,0.2,#cc79a7,#cc79a7,,A1ROEDVMTO9Y3X,001,2020-12-12_18h44.47.908,change-localization,2020.1.2,Win32,60,,,0,34,34,34,1,,
,,-0.082407407,-0.092592593,1,0,0,1.33388,probe4,"[-0.1,-0.1]",,,,,,36,probe3,0.05,0.05,0,0.1,#4A4A4A,#4A4A4A,,0.2,0.1,#009e73,#009e73,,-0.2,-0.1,#f0e442,#56b4e9,,-0.1,-0.1,#e69f00,#e69f00,,0.1,0,#0072b2,#0072b2,,A1ROEDVMTO9Y3X,001,2020-12-12_18h44.47.908,change-localization,2020.1.2,Win32,60,,,0,35,35,35,1,,
,,0.105555556,-0.026851852,1,0,0,1.233305,probe5,"[0.1,0]",,,,,,37,probe5,0.05,0.05,-0.2,0.1,#e69f00,#e69f00,,0.1,0.1,#0072b2,#0072b2,,-0.2,0,#d55e00,#d55e00,,-0.1,0.2,#cc79a7,#cc79a7,,0.1,0,#009e73,#f0e442,,A1ROEDVMTO9Y3X,001,2020-12-12_18h44.47.908,change-localization,2020.1.2,Win32,60,,,0,36,36,36,1,,
,,0.111111111,-0.007407407,1,0,0,3.022835,probe4,"[0.1,0]",,,,,,38,probe4,0.05,0.05,0.2,-0.2,#4A4A4A,#4A4A4A,,0.2,0,#0072b2,#0072b2,,0.1,-0.1,#e69f00,#e69f00,,0.1,0,#d55e00,#cc79a7,,0,-0.1,#009e73,#009e73,,A1ROEDVMTO9Y3X,001,2020-12-12_18h44.47.908,change-localization,2020.1.2,Win32,60,,,0,37,37,37,1,,
,,-0.202777778,0.196296296,1,0,0,1.32952,probe4,"[-0.2,0.2]",,,,,,39,probe4,0.05,0.05,0.1,-0.1,#e69f00,#e69f00,,-0.2,-0.1,#cc79a7,#cc79a7,,0.2,0.1,#d55e00,#d55e00,,-0.2,0.2,#56b4e9,#f0e442,,0,-0.1,#0072b2,#0072b2,,A1ROEDVMTO9Y3X,001,2020-12-12_18h44.47.908,change-localization,2020.1.2,Win32,60,,,0,38,38,38,1,,
,,-0.218518519,0.10462963,1,0,0,0.86943,probe1,"[-0.2,0.1]",,,,,,40,probe1,0.05,0.05,-0.2,0.1,#4A4A4A,#d55e00,,0.2,0.2,#009e73,#009e73,,-0.1,-0.1,#cc79a7,#cc79a7,,0.2,-0.2,#e69f00,#e69f00,,0.1,-0.1,#56b4e9,#56b4e9,,A1ROEDVMTO9Y3X,001,2020-12-12_18h44.47.908,change-localization,2020.1.2,Win32,60,,,0,39,39,39,1,,
,,-0.110185185,0.000925926,1,0,0,0.878345,probe4,"[-0.1,0]",,,,,,41,probe4,0.05,0.05,0.2,0.1,#009e73,#009e73,,-0.2,-0.1,#0072b2,#0072b2,,-0.2,-0.2,#56b4e9,#56b4e9,,-0.1,0,#f0e442,#cc79a7,,0,-0.2,#d55e00,#d55e00,,A1ROEDVMTO9Y3X,001,2020-12-12_18h44.47.908,change-localization,2020.1.2,Win32,60,,,0,40,40,40,1,,
,,-0.106481481,-0.026851852,1,0,0,1.68657,probe5,"[-0.1,0]",,,,,,42,probe4,0.05,0.05,-0.1,-0.2,#009e73,#009e73,,-0.1,0.1,#cc79a7,#cc79a7,,0.1,0.1,#56b4e9,#56b4e9,,0,-0.2,#e69f00,#d55e00,,-0.1,0,#0072b2,#0072b2,,A1ROEDVMTO9Y3X,001,2020-12-12_18h44.47.908,change-localization,2020.1.2,Win32,60,,,0,41,41,41,1,,
,,0.185185185,-0.108333333,1,0,0,1.58948,probe1,"[0.2,-0.1]",,,,,,43,probe1,0.05,0.05,0.2,-0.1,#e69f00,#009e73,,0.1,0,#cc79a7,#cc79a7,,-0.2,-0.2,#f0e442,#f0e442,,0.2,-0.2,#56b4e9,#56b4e9,,-0.2,0.1,#4A4A4A,#4A4A4A,,A1ROEDVMTO9Y3X,001,2020-12-12_18h44.47.908,change-localization,2020.1.2,Win32,60,,,0,42,42,42,1,,
,,-0.085185185,0.210185185,1,0,0,1.7629,probe1,"[-0.1,0.2]",,,,,,44,probe1,0.05,0.05,-0.1,0.2,#56b4e9,#e69f00,,0.2,0.1,#4A4A4A,#4A4A4A,,0.1,0,#cc79a7,#cc79a7,,0.1,0.2,#f0e442,#f0e442,,-0.1,-0.1,#d55e00,#d55e00,,A1ROEDVMTO9Y3X,001,2020-12-12_18h44.47.908,change-localization,2020.1.2,Win32,60,,,0,43,43,43,1,,
,,-0.20462963,-0.110185185,1,0,0,1.373315,probe2,"[-0.2,-0.1]",,,,,,45,probe3,0.05,0.05,-0.2,0.2,#0072b2,#0072b2,,-0.2,-0.1,#56b4e9,#56b4e9,,-0.1,0.1,#f0e442,#e69f00,,-0.1,0.2,#d55e00,#d55e00,,0,-0.2,#cc79a7,#cc79a7,,A1ROEDVMTO9Y3X,001,2020-12-12_18h44.47.908,change-localization,2020.1.2,Win32,60,,,0,44,44,44,1,,
,,0.180555556,-0.008333333,1,0,0,1.15834,probe5,"[0.2,0]",,,,,,46,probe5,0.05,0.05,0.2,0.1,#0072b2,#0072b2,,0.1,0.2,#f0e442,#f0e442,,0.2,-0.2,#009e73,#009e73,,0.2,0.2,#4A4A4A,#4A4A4A,,0.2,0,#cc79a7,#e69f00,,A1ROEDVMTO9Y3X,001,2020-12-12_18h44.47.908,change-localization,2020.1.2,Win32,60,,,0,45,45,45,1,,
,,0.210185185,0.183333333,1,0,0,1.06128,probe3,"[0.2,0.2]",,,,,,47,probe3,0.05,0.05,0,-0.1,#009e73,#009e73,,-0.2,0.2,#f0e442,#f0e442,,0.2,0.2,#56b4e9,#cc79a7,,-0.1,0.2,#4A4A4A,#4A4A4A,,-0.1,0.1,#e69f00,#e69f00,,A1ROEDVMTO9Y3X,001,2020-12-12_18h44.47.908,change-localization,2020.1.2,Win32,60,,,0,46,46,46,1,,
,,-0.106481481,-0.002777778,1,0,0,2.950255,probe5,"[-0.1,0]",,,,,,48,probe4,0.05,0.05,0.2,-0.2,#cc79a7,#cc79a7,,-0.1,0.1,#009e73,#009e73,,0.1,-0.2,#f0e442,#f0e442,,-0.2,-0.1,#d55e00,#0072b2,,-0.1,0,#56b4e9,#56b4e9,,A1ROEDVMTO9Y3X,001,2020-12-12_18h44.47.908,change-localization,2020.1.2,Win32,60,,,0,47,47,47,1,,
,,0.017592593,-0.193518519,1,0,0,5.99793,probe1,"[0,-0.2]",,,,,,49,probe2,0.05,0.05,0,-0.2,#e69f00,#e69f00,,-0.2,0,#cc79a7,#0072b2,,-0.1,0.2,#f0e442,#f0e442,,0.1,0.2,#4A4A4A,#4A4A4A,,-0.1,-0.1,#56b4e9,#56b4e9,,A1ROEDVMTO9Y3X,001,2020-12-12_18h44.47.908,change-localization,2020.1.2,Win32,60,,,0,48,48,48,1,,
,,-0.109259259,-0.007407407,1,0,0,1.994155,probe4,"[-0.1,0]",,,,,,50,probe4,0.05,0.05,0.2,0.1,#0072b2,#0072b2,,0.1,0.1,#cc79a7,#cc79a7,,0.1,-0.2,#56b4e9,#56b4e9,,-0.1,0,#009e73,#e69f00,,0,0.1,#d55e00,#d55e00,,A1ROEDVMTO9Y3X,001,2020-12-12_18h44.47.908,change-localization,2020.1.2,Win32,60,,,0,49,49,49,1,,
,,,,,,,,,,,,,,,,,,,,,,,,,,,,,,,,,,,,,,,,,,,,A1ROEDVMTO9Y3X,001,2020-12-12_18h44.47.908,change-localization,2020.1.2,Win32,60,,,,,,,,c,6.106435
