key_resp.keys,key_resp.rt,mouse.x,mouse.y,mouse.leftButton,mouse.midButton,mouse.rightButton,mouse.time,mouse.clicked_name,mouse.clicked_pos,training.thisRepN,training.thisTrialN,training.thisN,training.thisIndex,training.ran,trial,answer,height,width,x1,y1,stim_color1,probe_color1,copy_color1,x2,y2,stim_color2,probe_color2,copy_color2,x3,y3,stim_color3,probe_color3,copy_color3,x4,y4,stim_color4,probe_color4,copy_color4,x5,y5,stim_color5,probe_color5,copy_color5,participant,session,date,expName,psychopyVersion,OS,frameRate,key_resp_2.keys,key_resp_2.rt,trials.thisRepN,trials.thisTrialN,trials.thisN,trials.thisIndex,trials.ran,completion_keys.keys,completion_keys.rt
c,15.22499,0.20462963,-0.105555556,1,0,0,1.487055,probe4,"[0.2,-0.1]",0,0,0,0,1,1,probe4,0.05,0.05,0.1,0.2,#0072b2,#0072b2,#0072b2,0.1,-0.1,#e69f00,#e69f00,#e69f00,-0.1,-0.2,#cc79a7,#cc79a7,#cc79a7,0.2,-0.1,#4A4A4A,#f0e442,#FFFFFF,0.2,0,#009e73,#009e73,#009e73,A1SISJL5ST2PWH,001,2020-12-16_14h25.05.562,change-localization,2020.1.2,Win32,60,,,,,,,,,
,,0.198148148,-0.005555556,1,0,0,0.966445,probe1,"[0.2,0]",0,1,1,1,1,2,probe1,0.05,0.05,0.2,0,#d55e00,#009e73,#FFFFFF,0.2,-0.1,#e69f00,#e69f00,#e69f00,0.1,0,#4A4A4A,#4A4A4A,#4A4A4A,-0.1,0.1,#56b4e9,#56b4e9,#56b4e9,-0.1,0,#cc79a7,#cc79a7,#cc79a7,A1SISJL5ST2PWH,001,2020-12-16_14h25.05.562,change-localization,2020.1.2,Win32,60,,,,,,,,,
,,-0.2,-0.189814815,1,0,0,1.053405,probe1,"[-0.2,-0.2]",0,2,2,2,1,3,probe1,0.05,0.05,-0.2,-0.2,#f0e442,#009e73,#FFFFFF,0.2,-0.1,#d55e00,#d55e00,#d55e00,-0.2,0,#4A4A4A,#4A4A4A,#4A4A4A,-0.1,-0.1,#0072b2,#0072b2,#0072b2,0,-0.1,#56b4e9,#56b4e9,#56b4e9,A1SISJL5ST2PWH,001,2020-12-16_14h25.05.562,change-localization,2020.1.2,Win32,60,,,,,,,,,
,,0.227777778,0.209259259,1,0,0,1.61678,probe1,"[0.2,0.2]",0,3,3,3,1,4,probe1,0.05,0.05,0.2,0.2,#d55e00,#56b4e9,#FFFFFF,-0.2,0.2,#f0e442,#f0e442,#f0e442,0.2,-0.2,#0072b2,#0072b2,#0072b2,-0.2,0,#cc79a7,#cc79a7,#cc79a7,-0.2,0.1,#4A4A4A,#4A4A4A,#4A4A4A,A1SISJL5ST2PWH,001,2020-12-16_14h25.05.562,change-localization,2020.1.2,Win32,60,,,,,,,,,
,,-0.005555556,0.087037037,1,0,0,0.86662,probe3,"[0,0.1]",0,4,4,4,1,5,probe3,0.05,0.05,-0.2,0.1,#56b4e9,#56b4e9,#56b4e9,0,0.2,#009e73,#009e73,#009e73,0,0.1,#0072b2,#cc79a7,#FFFFFF,-0.1,-0.1,#4A4A4A,#4A4A4A,#4A4A4A,0.2,0,#f0e442,#f0e442,#f0e442,A1SISJL5ST2PWH,001,2020-12-16_14h25.05.562,change-localization,2020.1.2,Win32,60,,,,,,,,,
,,0.090740741,-0.00462963,1,0,0,0.90318,probe5,"[0.1,0]",0,5,5,5,1,6,probe5,0.05,0.05,-0.1,0.1,#f0e442,#f0e442,#f0e442,0,0.1,#009e73,#009e73,#009e73,-0.2,0,#4A4A4A,#4A4A4A,#4A4A4A,0,-0.2,#d55e00,#d55e00,#d55e00,0.1,0,#cc79a7,#0072b2,#FFFFFF,A1SISJL5ST2PWH,001,2020-12-16_14h25.05.562,change-localization,2020.1.2,Win32,60,,,,,,,,,
,,0.080555556,0.184259259,1,0,0,0.953605,probe2,"[0.1,0.2]",0,6,6,6,1,7,probe2,0.05,0.05,-0.2,-0.2,#4A4A4A,#4A4A4A,#4A4A4A,0.1,0.2,#0072b2,#d55e00,#FFFFFF,-0.1,-0.2,#f0e442,#f0e442,#f0e442,-0.2,0.2,#009e73,#009e73,#009e73,0.2,0.2,#e69f00,#e69f00,#e69f00,A1SISJL5ST2PWH,001,2020-12-16_14h25.05.562,change-localization,2020.1.2,Win32,60,,,,,,,,,
,,0.105555556,-0.210185185,1,0,0,1.91644,probe1,"[0.1,-0.2]",0,7,7,7,1,8,probe1,0.05,0.05,0.1,-0.2,#009e73,#f0e442,#FFFFFF,-0.1,0,#d55e00,#d55e00,#d55e00,-0.1,0.1,#4A4A4A,#4A4A4A,#4A4A4A,-0.2,0,#cc79a7,#cc79a7,#cc79a7,0.2,0,#e69f00,#e69f00,#e69f00,A1SISJL5ST2PWH,001,2020-12-16_14h25.05.562,change-localization,2020.1.2,Win32,60,,,,,,,,,
,,0.110185185,-0.219444444,1,0,0,1.616385,probe1,"[0.1,-0.2]",0,8,8,8,1,9,probe1,0.05,0.05,0.1,-0.2,#0072b2,#e69f00,#FFFFFF,-0.1,0.2,#f0e442,#f0e442,#f0e442,-0.2,0.1,#d55e00,#d55e00,#d55e00,0.2,0.2,#cc79a7,#cc79a7,#cc79a7,0.1,0.1,#56b4e9,#56b4e9,#56b4e9,A1SISJL5ST2PWH,001,2020-12-16_14h25.05.562,change-localization,2020.1.2,Win32,60,,,,,,,,,
,,-0.099074074,-0.110185185,1,0,0,0.81661,probe1,"[-0.1,-0.1]",0,9,9,9,1,10,probe1,0.05,0.05,-0.1,-0.1,#4A4A4A,#f0e442,#FFFFFF,0,0.2,#cc79a7,#cc79a7,#cc79a7,0.2,-0.2,#e69f00,#e69f00,#e69f00,0.1,-0.2,#009e73,#009e73,#009e73,0.1,0.1,#d55e00,#d55e00,#d55e00,A1SISJL5ST2PWH,001,2020-12-16_14h25.05.562,change-localization,2020.1.2,Win32,60,,,,,,,,,
,,-0.094444444,0.172222222,1,0,0,1.469805,probe2,"[-0.1,0.2]",,,,,,1,probe2,0.05,0.05,-0.2,0.2,#009e73,#009e73,,-0.1,0.2,#f0e442,#e69f00,,-0.1,0,#0072b2,#0072b2,,0,-0.2,#cc79a7,#cc79a7,,0,0.2,#d55e00,#d55e00,,A1SISJL5ST2PWH,001,2020-12-16_14h25.05.562,change-localization,2020.1.2,Win32,60,c,3.18633,0,0,0,0,1,,
,,0.012962963,-0.097222222,1,0,0,1.566125,probe5,"[0,-0.1]",,,,,,2,probe5,0.05,0.05,0,0.1,#009e73,#009e73,,0.2,0.1,#4A4A4A,#4A4A4A,,-0.1,-0.1,#cc79a7,#cc79a7,,0.1,0.1,#d55e00,#d55e00,,0,-0.1,#56b4e9,#e69f00,,A1SISJL5ST2PWH,001,2020-12-16_14h25.05.562,change-localization,2020.1.2,Win32,60,,,0,1,1,1,1,,
,,-0.094444444,0.086111111,1,0,0,1.01677,probe4,"[-0.1,0.1]",,,,,,3,probe4,0.05,0.05,0.1,-0.1,#56b4e9,#56b4e9,,0.2,0,#f0e442,#f0e442,,0.2,-0.1,#e69f00,#e69f00,,-0.1,0.1,#4A4A4A,#009e73,,-0.1,0.2,#d55e00,#d55e00,,A1SISJL5ST2PWH,001,2020-12-16_14h25.05.562,change-localization,2020.1.2,Win32,60,,,0,2,2,2,1,,
,,-0.206481481,0.006481481,1,0,0,1.46674,probe5,"[-0.2,0]",,,,,,4,probe5,0.05,0.05,0.2,0,#56b4e9,#56b4e9,,-0.2,-0.2,#cc79a7,#cc79a7,,0,0.2,#4A4A4A,#4A4A4A,,0.2,-0.2,#e69f00,#e69f00,,-0.2,0,#f0e442,#009e73,,A1SISJL5ST2PWH,001,2020-12-16_14h25.05.562,change-localization,2020.1.2,Win32,60,,,0,3,3,3,1,,
,,-0.092592593,-0.099074074,1,0,0,1.066545,probe3,"[-0.1,-0.1]",,,,,,5,probe3,0.05,0.05,-0.2,0.1,#4A4A4A,#4A4A4A,,0.2,0.2,#009e73,#009e73,,-0.1,-0.1,#0072b2,#f0e442,,0.2,0,#cc79a7,#cc79a7,,0.1,0.1,#e69f00,#e69f00,,A1SISJL5ST2PWH,001,2020-12-16_14h25.05.562,change-localization,2020.1.2,Win32,60,,,0,4,4,4,1,,
,,0.006481481,0.194444444,1,0,0,1.10299,probe4,"[0,0.2]",,,,,,6,probe4,0.05,0.05,-0.1,0.1,#d55e00,#d55e00,,-0.2,0.2,#0072b2,#0072b2,,0,-0.1,#e69f00,#e69f00,,0,0.2,#56b4e9,#4A4A4A,,-0.2,-0.2,#009e73,#009e73,,A1SISJL5ST2PWH,001,2020-12-16_14h25.05.562,change-localization,2020.1.2,Win32,60,,,0,5,5,5,1,,
,,0.201851852,0.2,1,0,0,1.01627,probe4,"[0.2,0.2]",,,,,,7,probe4,0.05,0.05,0.2,-0.1,#56b4e9,#56b4e9,,-0.1,-0.1,#e69f00,#e69f00,,-0.2,0.2,#009e73,#009e73,,0.2,0.2,#cc79a7,#4A4A4A,,0.2,-0.2,#d55e00,#d55e00,,A1SISJL5ST2PWH,001,2020-12-16_14h25.05.562,change-localization,2020.1.2,Win32,60,,,0,6,6,6,1,,
,,-0.201851852,0.106481481,1,0,0,1.003295,probe1,"[-0.2,0.1]",,,,,,8,probe4,0.05,0.05,-0.2,0.1,#e69f00,#e69f00,,0.1,0.2,#cc79a7,#cc79a7,,0.2,0.1,#4A4A4A,#4A4A4A,,-0.2,0.2,#56b4e9,#d55e00,,0.2,-0.1,#0072b2,#0072b2,,A1SISJL5ST2PWH,001,2020-12-16_14h25.05.562,change-localization,2020.1.2,Win32,60,,,0,7,7,7,1,,
,,0.192592593,0.203703704,1,0,0,0.969545,probe5,"[0.2,0.2]",,,,,,9,probe5,0.05,0.05,-0.1,0,#4A4A4A,#4A4A4A,,0.1,0.1,#56b4e9,#56b4e9,,-0.2,0.1,#009e73,#009e73,,0.2,0.1,#cc79a7,#cc79a7,,0.2,0.2,#d55e00,#f0e442,,A1SISJL5ST2PWH,001,2020-12-16_14h25.05.562,change-localization,2020.1.2,Win32,60,,,0,8,8,8,1,,
,,-0.007407407,0.105555556,1,0,0,0.983265,probe3,"[0,0.1]",,,,,,10,probe3,0.05,0.05,0.2,0.2,#f0e442,#f0e442,,0.1,-0.1,#e69f00,#e69f00,,0,0.1,#cc79a7,#4A4A4A,,-0.2,0.1,#56b4e9,#56b4e9,,0.2,0,#0072b2,#0072b2,,A1SISJL5ST2PWH,001,2020-12-16_14h25.05.562,change-localization,2020.1.2,Win32,60,,,0,9,9,9,1,,
,,0.086111111,-0.194444444,1,0,0,1.79942,probe5,"[0.1,-0.2]",,,,,,11,probe5,0.05,0.05,0.2,0.2,#4A4A4A,#4A4A4A,,0.1,0.2,#0072b2,#0072b2,,0.1,-0.1,#cc79a7,#cc79a7,,0,-0.2,#009e73,#009e73,,0.1,-0.2,#f0e442,#d55e00,,A1SISJL5ST2PWH,001,2020-12-16_14h25.05.562,change-localization,2020.1.2,Win32,60,,,0,10,10,10,1,,
,,0.081481481,-0.011111111,1,0,0,1.06628,probe4,"[0.1,0]",,,,,,12,probe4,0.05,0.05,-0.1,-0.1,#009e73,#009e73,,-0.1,0,#56b4e9,#56b4e9,,-0.1,-0.2,#0072b2,#0072b2,,0.1,0,#d55e00,#f0e442,,0,-0.1,#cc79a7,#cc79a7,,A1SISJL5ST2PWH,001,2020-12-16_14h25.05.562,change-localization,2020.1.2,Win32,60,,,0,11,11,11,1,,
,,-0.201851852,0.202777778,1,0,0,0.849915,probe4,"[-0.2,0.2]",,,,,,13,probe4,0.05,0.05,0,-0.1,#f0e442,#f0e442,,0.1,-0.1,#d55e00,#d55e00,,0.1,0.1,#0072b2,#0072b2,,-0.2,0.2,#cc79a7,#4A4A4A,,0.1,0.2,#009e73,#009e73,,A1SISJL5ST2PWH,001,2020-12-16_14h25.05.562,change-localization,2020.1.2,Win32,60,,,0,12,12,12,1,,
,,0.101851852,0.211111111,1,0,0,1.219445,probe5,"[0.1,0.2]",,,,,,14,probe5,0.05,0.05,0,0.2,#cc79a7,#cc79a7,,0,-0.1,#4A4A4A,#4A4A4A,,-0.2,0,#56b4e9,#56b4e9,,0.1,0.1,#0072b2,#0072b2,,0.1,0.2,#009e73,#e69f00,,A1SISJL5ST2PWH,001,2020-12-16_14h25.05.562,change-localization,2020.1.2,Win32,60,,,0,13,13,13,1,,
,,0.19537037,0.093518519,1,0,0,0.999915,probe3,"[0.2,0.1]",,,,,,15,probe3,0.05,0.05,0.2,0.2,#cc79a7,#cc79a7,,0,0.2,#56b4e9,#56b4e9,,0.2,0.1,#d55e00,#4A4A4A,,0.1,-0.1,#f0e442,#f0e442,,0.2,-0.1,#0072b2,#0072b2,,A1SISJL5ST2PWH,001,2020-12-16_14h25.05.562,change-localization,2020.1.2,Win32,60,,,0,14,14,14,1,,
,,0.100925926,0.1,1,0,0,0.9202,probe3,"[0.1,0.1]",,,,,,16,probe3,0.05,0.05,-0.2,-0.1,#f0e442,#f0e442,,-0.2,0.2,#d55e00,#d55e00,,0.1,0.1,#009e73,#4A4A4A,,-0.2,0.1,#56b4e9,#56b4e9,,0,-0.1,#cc79a7,#cc79a7,,A1SISJL5ST2PWH,001,2020-12-16_14h25.05.562,change-localization,2020.1.2,Win32,60,,,0,15,15,15,1,,
,,0.012037037,0.099074074,1,0,0,0.81982,probe3,"[0,0.1]",,,,,,17,probe3,0.05,0.05,0.2,-0.1,#cc79a7,#cc79a7,,0,-0.2,#0072b2,#0072b2,,0,0.1,#4A4A4A,#e69f00,,-0.2,-0.1,#f0e442,#f0e442,,-0.1,-0.1,#009e73,#009e73,,A1SISJL5ST2PWH,001,2020-12-16_14h25.05.562,change-localization,2020.1.2,Win32,60,,,0,16,16,16,1,,
,,-0.100925926,0.096296296,1,0,0,1.43333,probe1,"[-0.1,0.1]",,,,,,18,probe3,0.05,0.05,-0.1,0.1,#d55e00,#d55e00,,-0.1,0.2,#e69f00,#e69f00,,0.2,0,#009e73,#0072b2,,0.1,-0.1,#cc79a7,#cc79a7,,-0.2,0.2,#4A4A4A,#4A4A4A,,A1SISJL5ST2PWH,001,2020-12-16_14h25.05.562,change-localization,2020.1.2,Win32,60,,,0,17,17,17,1,,
,,-0.092592593,0.076851852,1,0,0,1.352865,probe3,"[-0.1,0.1]",,,,,,19,probe3,0.05,0.05,-0.1,0.2,#0072b2,#0072b2,,0,-0.1,#4A4A4A,#4A4A4A,,-0.1,0.1,#e69f00,#009e73,,0.2,0.1,#d55e00,#d55e00,,-0.2,0.1,#cc79a7,#cc79a7,,A1SISJL5ST2PWH,001,2020-12-16_14h25.05.562,change-localization,2020.1.2,Win32,60,,,0,18,18,18,1,,
,,-0.000925926,-0.094444444,1,0,0,1.25333,probe4,"[0,-0.1]",,,,,,20,probe4,0.05,0.05,0.2,0,#56b4e9,#56b4e9,,-0.1,0.2,#009e73,#009e73,,-0.2,-0.2,#e69f00,#e69f00,,0,-0.1,#f0e442,#cc79a7,,-0.1,0,#4A4A4A,#4A4A4A,,A1SISJL5ST2PWH,001,2020-12-16_14h25.05.562,change-localization,2020.1.2,Win32,60,,,0,19,19,19,1,,
,,0.201851852,-0.002777778,1,0,0,1.033415,probe3,"[0.2,0]",,,,,,21,probe3,0.05,0.05,-0.1,0.1,#0072b2,#0072b2,,-0.1,0.2,#009e73,#009e73,,0.2,0,#56b4e9,#4A4A4A,,-0.2,0.2,#f0e442,#f0e442,,0.2,0.1,#d55e00,#d55e00,,A1SISJL5ST2PWH,001,2020-12-16_14h25.05.562,change-localization,2020.1.2,Win32,60,,,0,20,20,20,1,,
,,-0.194444444,-0.097222222,1,0,0,1.22019,probe4,"[-0.2,-0.1]",,,,,,22,probe4,0.05,0.05,0.2,-0.1,#d55e00,#d55e00,,0.2,0,#56b4e9,#56b4e9,,0.1,-0.2,#cc79a7,#cc79a7,,-0.2,-0.1,#4A4A4A,#009e73,,0,-0.2,#e69f00,#e69f00,,A1SISJL5ST2PWH,001,2020-12-16_14h25.05.562,change-localization,2020.1.2,Win32,60,,,0,21,21,21,1,,
,,0.197222222,-0.001851852,1,0,0,1.21659,probe3,"[0.2,0]",,,,,,23,probe4,0.05,0.05,0.1,0.1,#56b4e9,#56b4e9,,-0.2,-0.1,#0072b2,#0072b2,,0.2,0,#d55e00,#d55e00,,-0.2,-0.2,#cc79a7,#009e73,,0.1,-0.2,#4A4A4A,#4A4A4A,,A1SISJL5ST2PWH,001,2020-12-16_14h25.05.562,change-localization,2020.1.2,Win32,60,,,0,22,22,22,1,,
,,0.190740741,0.175925926,1,0,0,0.99995,probe2,"[0.2,0.2]",,,,,,24,probe2,0.05,0.05,-0.1,-0.2,#4A4A4A,#4A4A4A,,0.2,0.2,#d55e00,#e69f00,,0.1,-0.1,#f0e442,#f0e442,,0.1,0.1,#56b4e9,#56b4e9,,-0.2,0.1,#cc79a7,#cc79a7,,A1SISJL5ST2PWH,001,2020-12-16_14h25.05.562,change-localization,2020.1.2,Win32,60,,,0,23,23,23,1,,
,,0.198148148,-0.000925926,1,0,0,1.28352,probe3,"[0.2,0]",,,,,,25,probe3,0.05,0.05,-0.2,-0.2,#f0e442,#f0e442,,-0.1,-0.1,#4A4A4A,#4A4A4A,,0.2,0,#d55e00,#cc79a7,,0,0.2,#0072b2,#0072b2,,-0.2,0.1,#009e73,#009e73,,A1SISJL5ST2PWH,001,2020-12-16_14h25.05.562,change-localization,2020.1.2,Win32,60,,,0,24,24,24,1,,
,,0.110185185,-0.100925926,1,0,0,1.266395,probe1,"[0.1,-0.1]",,,,,,26,probe3,0.05,0.05,0.1,-0.1,#e69f00,#e69f00,,-0.2,0,#56b4e9,#56b4e9,,-0.1,-0.2,#009e73,#d55e00,,-0.2,-0.1,#4A4A4A,#4A4A4A,,0.1,0,#cc79a7,#cc79a7,,A1SISJL5ST2PWH,001,2020-12-16_14h25.05.562,change-localization,2020.1.2,Win32,60,,,0,25,25,25,1,,
,,-0.20462963,-0.099074074,1,0,0,1.11628,probe5,"[-0.2,-0.1]",,,,,,27,probe5,0.05,0.05,-0.1,-0.2,#009e73,#009e73,,0.2,0,#cc79a7,#cc79a7,,-0.1,-0.1,#e69f00,#e69f00,,0.1,0.1,#d55e00,#d55e00,,-0.2,-0.1,#4A4A4A,#0072b2,,A1SISJL5ST2PWH,001,2020-12-16_14h25.05.562,change-localization,2020.1.2,Win32,60,,,0,26,26,26,1,,
,,0.094444444,0.097222222,1,0,0,1.15347,probe5,"[0.1,0.1]",,,,,,28,probe5,0.05,0.05,-0.1,0.2,#009e73,#009e73,,-0.2,0.1,#56b4e9,#56b4e9,,0,-0.2,#d55e00,#d55e00,,0.1,0,#0072b2,#0072b2,,0.1,0.1,#f0e442,#e69f00,,A1SISJL5ST2PWH,001,2020-12-16_14h25.05.562,change-localization,2020.1.2,Win32,60,,,0,27,27,27,1,,
,,-0.098148148,-0.099074074,1,0,0,1.06345,probe3,"[-0.1,-0.1]",,,,,,29,probe1,0.05,0.05,0.1,-0.1,#4A4A4A,#56b4e9,,-0.2,0.2,#e69f00,#e69f00,,-0.1,-0.1,#f0e442,#f0e442,,0.1,0.2,#0072b2,#0072b2,,-0.1,-0.2,#cc79a7,#cc79a7,,A1SISJL5ST2PWH,001,2020-12-16_14h25.05.562,change-localization,2020.1.2,Win32,60,,,0,28,28,28,1,,
,,-0.090740741,-0.19537037,1,0,0,1.149715,probe2,"[-0.1,-0.2]",,,,,,30,probe2,0.05,0.05,0.1,0.2,#f0e442,#f0e442,,-0.1,-0.2,#d55e00,#4A4A4A,,0,-0.2,#cc79a7,#cc79a7,,0.1,-0.2,#0072b2,#0072b2,,-0.2,0,#009e73,#009e73,,A1SISJL5ST2PWH,001,2020-12-16_14h25.05.562,change-localization,2020.1.2,Win32,60,,,0,29,29,29,1,,
,,-0.096296296,-0.10462963,1,0,0,0.76662,probe5,"[-0.1,-0.1]",,,,,,31,probe5,0.05,0.05,0,-0.2,#d55e00,#d55e00,,0.1,0,#e69f00,#e69f00,,0.1,0.2,#f0e442,#f0e442,,-0.2,-0.1,#cc79a7,#cc79a7,,-0.1,-0.1,#009e73,#4A4A4A,,A1SISJL5ST2PWH,001,2020-12-16_14h25.05.562,change-localization,2020.1.2,Win32,60,,,0,30,30,30,1,,
,,-0.102777778,-0.093518519,1,0,0,0.9364,probe2,"[-0.1,-0.1]",,,,,,32,probe3,0.05,0.05,0.2,0.2,#56b4e9,#56b4e9,,-0.1,-0.1,#009e73,#009e73,,0.2,0.1,#cc79a7,#0072b2,,-0.2,0.1,#4A4A4A,#4A4A4A,,-0.2,-0.1,#f0e442,#f0e442,,A1SISJL5ST2PWH,001,2020-12-16_14h25.05.562,change-localization,2020.1.2,Win32,60,,,0,31,31,31,1,,
,,-0.10462963,0.097222222,1,0,0,1.08665,probe3,"[-0.1,0.1]",,,,,,33,probe3,0.05,0.05,-0.1,-0.1,#0072b2,#0072b2,,0.1,0.1,#cc79a7,#cc79a7,,-0.1,0.1,#f0e442,#009e73,,0,-0.2,#56b4e9,#56b4e9,,0.1,0.2,#e69f00,#e69f00,,A1SISJL5ST2PWH,001,2020-12-16_14h25.05.562,change-localization,2020.1.2,Win32,60,,,0,32,32,32,1,,
,,-0.189814815,0.10462963,1,0,0,1.06663,probe2,"[-0.2,0.1]",,,,,,34,probe5,0.05,0.05,0.2,0.1,#e69f00,#e69f00,,-0.2,0.1,#cc79a7,#cc79a7,,0.1,-0.2,#0072b2,#0072b2,,0.2,-0.2,#d55e00,#d55e00,,-0.2,0,#56b4e9,#009e73,,A1SISJL5ST2PWH,001,2020-12-16_14h25.05.562,change-localization,2020.1.2,Win32,60,,,0,33,33,33,1,,
,,0.198148148,-0.091666667,1,0,0,1.1499,probe2,"[0.2,-0.1]",,,,,,35,probe2,0.05,0.05,0.2,0,#56b4e9,#56b4e9,,0.2,-0.1,#e69f00,#009e73,,0.1,-0.1,#f0e442,#f0e442,,0,0.2,#d55e00,#d55e00,,0.1,0.2,#cc79a7,#cc79a7,,A1SISJL5ST2PWH,001,2020-12-16_14h25.05.562,change-localization,2020.1.2,Win32,60,,,0,34,34,34,1,,
,,-0.200925926,-0.087962963,1,0,0,1.082945,probe3,"[-0.2,-0.1]",,,,,,36,probe3,0.05,0.05,0,0.1,#4A4A4A,#4A4A4A,,0.2,0.1,#009e73,#009e73,,-0.2,-0.1,#f0e442,#56b4e9,,-0.1,-0.1,#e69f00,#e69f00,,0.1,0,#0072b2,#0072b2,,A1SISJL5ST2PWH,001,2020-12-16_14h25.05.562,change-localization,2020.1.2,Win32,60,,,0,35,35,35,1,,
,,0.099074074,-0.001851852,1,0,0,0.83665,probe5,"[0.1,0]",,,,,,37,probe5,0.05,0.05,-0.2,0.1,#e69f00,#e69f00,,0.1,0.1,#0072b2,#0072b2,,-0.2,0,#d55e00,#d55e00,,-0.1,0.2,#cc79a7,#cc79a7,,0.1,0,#009e73,#f0e442,,A1SISJL5ST2PWH,001,2020-12-16_14h25.05.562,change-localization,2020.1.2,Win32,60,,,0,36,36,36,1,,
,,0.121296296,0.010185185,1,0,0,1.250015,probe4,"[0.1,0]",,,,,,38,probe4,0.05,0.05,0.2,-0.2,#4A4A4A,#4A4A4A,,0.2,0,#0072b2,#0072b2,,0.1,-0.1,#e69f00,#e69f00,,0.1,0,#d55e00,#cc79a7,,0,-0.1,#009e73,#009e73,,A1SISJL5ST2PWH,001,2020-12-16_14h25.05.562,change-localization,2020.1.2,Win32,60,,,0,37,37,37,1,,
,,-0.197222222,0.20462963,1,0,0,0.916535,probe4,"[-0.2,0.2]",,,,,,39,probe4,0.05,0.05,0.1,-0.1,#e69f00,#e69f00,,-0.2,-0.1,#cc79a7,#cc79a7,,0.2,0.1,#d55e00,#d55e00,,-0.2,0.2,#56b4e9,#f0e442,,0,-0.1,#0072b2,#0072b2,,A1SISJL5ST2PWH,001,2020-12-16_14h25.05.562,change-localization,2020.1.2,Win32,60,,,0,38,38,38,1,,
,,-0.203703704,0.106481481,1,0,0,0.883325,probe1,"[-0.2,0.1]",,,,,,40,probe1,0.05,0.05,-0.2,0.1,#4A4A4A,#d55e00,,0.2,0.2,#009e73,#009e73,,-0.1,-0.1,#cc79a7,#cc79a7,,0.2,-0.2,#e69f00,#e69f00,,0.1,-0.1,#56b4e9,#56b4e9,,A1SISJL5ST2PWH,001,2020-12-16_14h25.05.562,change-localization,2020.1.2,Win32,60,,,0,39,39,39,1,,
,,-0.103703704,0.003703704,1,0,0,0.933395,probe4,"[-0.1,0]",,,,,,41,probe4,0.05,0.05,0.2,0.1,#009e73,#009e73,,-0.2,-0.1,#0072b2,#0072b2,,-0.2,-0.2,#56b4e9,#56b4e9,,-0.1,0,#f0e442,#cc79a7,,0,-0.2,#d55e00,#d55e00,,A1SISJL5ST2PWH,001,2020-12-16_14h25.05.562,change-localization,2020.1.2,Win32,60,,,0,40,40,40,1,,
,,0.00462963,-0.2,1,0,0,1.020525,probe4,"[0,-0.2]",,,,,,42,probe4,0.05,0.05,-0.1,-0.2,#009e73,#009e73,,-0.1,0.1,#cc79a7,#cc79a7,,0.1,0.1,#56b4e9,#56b4e9,,0,-0.2,#e69f00,#d55e00,,-0.1,0,#0072b2,#0072b2,,A1SISJL5ST2PWH,001,2020-12-16_14h25.05.562,change-localization,2020.1.2,Win32,60,,,0,41,41,41,1,,
,,0.103703704,-0.002777778,1,0,0,0.933205,probe2,"[0.1,0]",,,,,,43,probe1,0.05,0.05,0.2,-0.1,#e69f00,#009e73,,0.1,0,#cc79a7,#cc79a7,,-0.2,-0.2,#f0e442,#f0e442,,0.2,-0.2,#56b4e9,#56b4e9,,-0.2,0.1,#4A4A4A,#4A4A4A,,A1SISJL5ST2PWH,001,2020-12-16_14h25.05.562,change-localization,2020.1.2,Win32,60,,,0,42,42,42,1,,
,,-0.110185185,0.199074074,1,0,0,1.116615,probe1,"[-0.1,0.2]",,,,,,44,probe1,0.05,0.05,-0.1,0.2,#56b4e9,#e69f00,,0.2,0.1,#4A4A4A,#4A4A4A,,0.1,0,#cc79a7,#cc79a7,,0.1,0.2,#f0e442,#f0e442,,-0.1,-0.1,#d55e00,#d55e00,,A1SISJL5ST2PWH,001,2020-12-16_14h25.05.562,change-localization,2020.1.2,Win32,60,,,0,43,43,43,1,,
,,-0.100925926,0.090740741,1,0,0,2.29995,probe3,"[-0.1,0.1]",,,,,,45,probe3,0.05,0.05,-0.2,0.2,#0072b2,#0072b2,,-0.2,-0.1,#56b4e9,#56b4e9,,-0.1,0.1,#f0e442,#e69f00,,-0.1,0.2,#d55e00,#d55e00,,0,-0.2,#cc79a7,#cc79a7,,A1SISJL5ST2PWH,001,2020-12-16_14h25.05.562,change-localization,2020.1.2,Win32,60,,,0,44,44,44,1,,
,,0.205555556,0.000925926,1,0,0,1.34948,probe5,"[0.2,0]",,,,,,46,probe5,0.05,0.05,0.2,0.1,#0072b2,#0072b2,,0.1,0.2,#f0e442,#f0e442,,0.2,-0.2,#009e73,#009e73,,0.2,0.2,#4A4A4A,#4A4A4A,,0.2,0,#cc79a7,#e69f00,,A1SISJL5ST2PWH,001,2020-12-16_14h25.05.562,change-localization,2020.1.2,Win32,60,,,0,45,45,45,1,,
,,0.200925926,0.197222222,1,0,0,0.8997,probe3,"[0.2,0.2]",,,,,,47,probe3,0.05,0.05,0,-0.1,#009e73,#009e73,,-0.2,0.2,#f0e442,#f0e442,,0.2,0.2,#56b4e9,#cc79a7,,-0.1,0.2,#4A4A4A,#4A4A4A,,-0.1,0.1,#e69f00,#e69f00,,A1SISJL5ST2PWH,001,2020-12-16_14h25.05.562,change-localization,2020.1.2,Win32,60,,,0,46,46,46,1,,
,,-0.20462963,-0.091666667,1,0,0,1.149495,probe4,"[-0.2,-0.1]",,,,,,48,probe4,0.05,0.05,0.2,-0.2,#cc79a7,#cc79a7,,-0.1,0.1,#009e73,#009e73,,0.1,-0.2,#f0e442,#f0e442,,-0.2,-0.1,#d55e00,#0072b2,,-0.1,0,#56b4e9,#56b4e9,,A1SISJL5ST2PWH,001,2020-12-16_14h25.05.562,change-localization,2020.1.2,Win32,60,,,0,47,47,47,1,,
,,-0.197222222,0.002777778,1,0,0,1.11677,probe2,"[-0.2,0]",,,,,,49,probe2,0.05,0.05,0,-0.2,#e69f00,#e69f00,,-0.2,0,#cc79a7,#0072b2,,-0.1,0.2,#f0e442,#f0e442,,0.1,0.2,#4A4A4A,#4A4A4A,,-0.1,-0.1,#56b4e9,#56b4e9,,A1SISJL5ST2PWH,001,2020-12-16_14h25.05.562,change-localization,2020.1.2,Win32,60,,,0,48,48,48,1,,
,,-0.097222222,0.001851852,1,0,0,0.966545,probe4,"[-0.1,0]",,,,,,50,probe4,0.05,0.05,0.2,0.1,#0072b2,#0072b2,,0.1,0.1,#cc79a7,#cc79a7,,0.1,-0.2,#56b4e9,#56b4e9,,-0.1,0,#009e73,#e69f00,,0,0.1,#d55e00,#d55e00,,A1SISJL5ST2PWH,001,2020-12-16_14h25.05.562,change-localization,2020.1.2,Win32,60,,,0,49,49,49,1,,
,,,,,,,,,,,,,,,,,,,,,,,,,,,,,,,,,,,,,,,,,,,,A1SISJL5ST2PWH,001,2020-12-16_14h25.05.562,change-localization,2020.1.2,Win32,60,,,,,,,,c,15.63757
