key_resp.keys,key_resp.rt,mouse.x,mouse.y,mouse.leftButton,mouse.midButton,mouse.rightButton,mouse.time,mouse.clicked_name,mouse.clicked_pos,training.thisRepN,training.thisTrialN,training.thisN,training.thisIndex,training.ran,trial,answer,height,width,x1,y1,stim_color1,probe_color1,copy_color1,x2,y2,stim_color2,probe_color2,copy_color2,x3,y3,stim_color3,probe_color3,copy_color3,x4,y4,stim_color4,probe_color4,copy_color4,x5,y5,stim_color5,probe_color5,copy_color5,participant,session,date,expName,psychopyVersion,OS,frameRate,key_resp_2.keys,key_resp_2.rt,trials.thisRepN,trials.thisTrialN,trials.thisN,trials.thisIndex,trials.ran,completion_keys.keys,completion_keys.rt
c,14.982,0.098632813,0.188476563,1,0,0,2.896,probe1,"[0.1,0.2]",0,0,0,0,1,1,probe4,0.05,0.05,0.1,0.2,#0072b2,#0072b2,#0072b2,0.1,-0.1,#e69f00,#e69f00,#e69f00,-0.1,-0.2,#cc79a7,#cc79a7,#cc79a7,0.2,-0.1,#4A4A4A,#f0e442,#FFFFFF,0.2,0,#009e73,#009e73,#009e73,A1SQEJ3XQO0UKO,001,2020-12-11_18h18.46.806,change-localization,2020.1.2,Win32,60,,,,,,,,,
,,-0.100585938,-0.006835938,1,0,0,7.729,probe5,"[-0.1,0]",0,1,1,1,1,2,probe1,0.05,0.05,0.2,0,#d55e00,#009e73,#FFFFFF,0.2,-0.1,#e69f00,#e69f00,#e69f00,0.1,0,#4A4A4A,#4A4A4A,#4A4A4A,-0.1,0.1,#56b4e9,#56b4e9,#56b4e9,-0.1,0,#cc79a7,#cc79a7,#cc79a7,A1SQEJ3XQO0UKO,001,2020-12-11_18h18.46.806,change-localization,2020.1.2,Win32,60,,,,,,,,,
,,-0.19921875,-0.19921875,1,0,0,2.73,probe1,"[-0.2,-0.2]",0,2,2,2,1,3,probe1,0.05,0.05,-0.2,-0.2,#f0e442,#009e73,#FFFFFF,0.2,-0.1,#d55e00,#d55e00,#d55e00,-0.2,0,#4A4A4A,#4A4A4A,#4A4A4A,-0.1,-0.1,#0072b2,#0072b2,#0072b2,0,-0.1,#56b4e9,#56b4e9,#56b4e9,A1SQEJ3XQO0UKO,001,2020-12-11_18h18.46.806,change-localization,2020.1.2,Win32,60,,,,,,,,,
,,-0.205078125,-0.0078125,1,0,0,2.524,probe4,"[-0.2,0]",0,3,3,3,1,4,probe1,0.05,0.05,0.2,0.2,#d55e00,#56b4e9,#FFFFFF,-0.2,0.2,#f0e442,#f0e442,#f0e442,0.2,-0.2,#0072b2,#0072b2,#0072b2,-0.2,0,#cc79a7,#cc79a7,#cc79a7,-0.2,0.1,#4A4A4A,#4A4A4A,#4A4A4A,A1SQEJ3XQO0UKO,001,2020-12-11_18h18.46.806,change-localization,2020.1.2,Win32,60,,,,,,,,,
,,0.015625,0.109375,1,0,0,1.509,probe3,"[0,0.1]",0,4,4,4,1,5,probe3,0.05,0.05,-0.2,0.1,#56b4e9,#56b4e9,#56b4e9,0,0.2,#009e73,#009e73,#009e73,0,0.1,#0072b2,#cc79a7,#FFFFFF,-0.1,-0.1,#4A4A4A,#4A4A4A,#4A4A4A,0.2,0,#f0e442,#f0e442,#f0e442,A1SQEJ3XQO0UKO,001,2020-12-11_18h18.46.806,change-localization,2020.1.2,Win32,60,,,,,,,,,
,,0.002929688,-0.190429688,1,0,0,2.265,probe4,"[0,-0.2]",0,5,5,5,1,6,probe5,0.05,0.05,-0.1,0.1,#f0e442,#f0e442,#f0e442,0,0.1,#009e73,#009e73,#009e73,-0.2,0,#4A4A4A,#4A4A4A,#4A4A4A,0,-0.2,#d55e00,#d55e00,#d55e00,0.1,0,#cc79a7,#0072b2,#FFFFFF,A1SQEJ3XQO0UKO,001,2020-12-11_18h18.46.806,change-localization,2020.1.2,Win32,60,,,,,,,,,
,,-0.2109375,0.198242188,1,0,0,5.351,probe4,"[-0.2,0.2]",0,6,6,6,1,7,probe2,0.05,0.05,-0.2,-0.2,#4A4A4A,#4A4A4A,#4A4A4A,0.1,0.2,#0072b2,#d55e00,#FFFFFF,-0.1,-0.2,#f0e442,#f0e442,#f0e442,-0.2,0.2,#009e73,#009e73,#009e73,0.2,0.2,#e69f00,#e69f00,#e69f00,A1SQEJ3XQO0UKO,001,2020-12-11_18h18.46.806,change-localization,2020.1.2,Win32,60,,,,,,,,,
,,-0.087890625,0.09765625,1,0,0,1.624,probe3,"[-0.1,0.1]",0,7,7,7,1,8,probe1,0.05,0.05,0.1,-0.2,#009e73,#f0e442,#FFFFFF,-0.1,0,#d55e00,#d55e00,#d55e00,-0.1,0.1,#4A4A4A,#4A4A4A,#4A4A4A,-0.2,0,#cc79a7,#cc79a7,#cc79a7,0.2,0,#e69f00,#e69f00,#e69f00,A1SQEJ3XQO0UKO,001,2020-12-11_18h18.46.806,change-localization,2020.1.2,Win32,60,,,,,,,,,
,,-0.202148438,0.108398438,1,0,0,3.449,probe3,"[-0.2,0.1]",0,8,8,8,1,9,probe1,0.05,0.05,0.1,-0.2,#0072b2,#e69f00,#FFFFFF,-0.1,0.2,#f0e442,#f0e442,#f0e442,-0.2,0.1,#d55e00,#d55e00,#d55e00,0.2,0.2,#cc79a7,#cc79a7,#cc79a7,0.1,0.1,#56b4e9,#56b4e9,#56b4e9,A1SQEJ3XQO0UKO,001,2020-12-11_18h18.46.806,change-localization,2020.1.2,Win32,60,,,,,,,,,
,,0.110351563,-0.201171875,1,0,0,3.542,probe4,"[0.1,-0.2]",0,9,9,9,1,10,probe1,0.05,0.05,-0.1,-0.1,#4A4A4A,#f0e442,#FFFFFF,0,0.2,#cc79a7,#cc79a7,#cc79a7,0.2,-0.2,#e69f00,#e69f00,#e69f00,0.1,-0.2,#009e73,#009e73,#009e73,0.1,0.1,#d55e00,#d55e00,#d55e00,A1SQEJ3XQO0UKO,001,2020-12-11_18h18.46.806,change-localization,2020.1.2,Win32,60,,,,,,,,,
,,0.000976563,-0.203125,1,0,0,3.067,probe4,"[0,-0.2]",,,,,,1,probe2,0.05,0.05,-0.2,0.2,#009e73,#009e73,,-0.1,0.2,#f0e442,#e69f00,,-0.1,0,#0072b2,#0072b2,,0,-0.2,#cc79a7,#cc79a7,,0,0.2,#d55e00,#d55e00,,A1SQEJ3XQO0UKO,001,2020-12-11_18h18.46.806,change-localization,2020.1.2,Win32,60,c,3.847,0,0,0,0,1,,
,,0.002929688,-0.098632813,1,0,0,3.695,probe5,"[0,-0.1]",,,,,,2,probe5,0.05,0.05,0,0.1,#009e73,#009e73,,0.2,0.1,#4A4A4A,#4A4A4A,,-0.1,-0.1,#cc79a7,#cc79a7,,0.1,0.1,#d55e00,#d55e00,,0,-0.1,#56b4e9,#e69f00,,A1SQEJ3XQO0UKO,001,2020-12-11_18h18.46.806,change-localization,2020.1.2,Win32,60,,,0,1,1,1,1,,
,,-0.099609375,0.090820313,1,0,0,1.6,probe4,"[-0.1,0.1]",,,,,,3,probe4,0.05,0.05,0.1,-0.1,#56b4e9,#56b4e9,,0.2,0,#f0e442,#f0e442,,0.2,-0.1,#e69f00,#e69f00,,-0.1,0.1,#4A4A4A,#009e73,,-0.1,0.2,#d55e00,#d55e00,,A1SQEJ3XQO0UKO,001,2020-12-11_18h18.46.806,change-localization,2020.1.2,Win32,60,,,0,2,2,2,1,,
,,-0.201171875,-0.01171875,1,0,0,4.121,probe5,"[-0.2,0]",,,,,,4,probe5,0.05,0.05,0.2,0,#56b4e9,#56b4e9,,-0.2,-0.2,#cc79a7,#cc79a7,,0,0.2,#4A4A4A,#4A4A4A,,0.2,-0.2,#e69f00,#e69f00,,-0.2,0,#f0e442,#009e73,,A1SQEJ3XQO0UKO,001,2020-12-11_18h18.46.806,change-localization,2020.1.2,Win32,60,,,0,3,3,3,1,,
,,-0.083007813,-0.09765625,1,0,0,1.994,probe3,"[-0.1,-0.1]",,,,,,5,probe3,0.05,0.05,-0.2,0.1,#4A4A4A,#4A4A4A,,0.2,0.2,#009e73,#009e73,,-0.1,-0.1,#0072b2,#f0e442,,0.2,0,#cc79a7,#cc79a7,,0.1,0.1,#e69f00,#e69f00,,A1SQEJ3XQO0UKO,001,2020-12-11_18h18.46.806,change-localization,2020.1.2,Win32,60,,,0,4,4,4,1,,
,,-0.201171875,-0.205078125,1,0,0,1.616,probe5,"[-0.2,-0.2]",,,,,,6,probe4,0.05,0.05,-0.1,0.1,#d55e00,#d55e00,,-0.2,0.2,#0072b2,#0072b2,,0,-0.1,#e69f00,#e69f00,,0,0.2,#56b4e9,#4A4A4A,,-0.2,-0.2,#009e73,#009e73,,A1SQEJ3XQO0UKO,001,2020-12-11_18h18.46.806,change-localization,2020.1.2,Win32,60,,,0,5,5,5,1,,
,,-0.200195313,0.204101563,1,0,0,2.342,probe3,"[-0.2,0.2]",,,,,,7,probe4,0.05,0.05,0.2,-0.1,#56b4e9,#56b4e9,,-0.1,-0.1,#e69f00,#e69f00,,-0.2,0.2,#009e73,#009e73,,0.2,0.2,#cc79a7,#4A4A4A,,0.2,-0.2,#d55e00,#d55e00,,A1SQEJ3XQO0UKO,001,2020-12-11_18h18.46.806,change-localization,2020.1.2,Win32,60,,,0,6,6,6,1,,
,,-0.201171875,0.203125,1,0,0,3.442,probe4,"[-0.2,0.2]",,,,,,8,probe4,0.05,0.05,-0.2,0.1,#e69f00,#e69f00,,0.1,0.2,#cc79a7,#cc79a7,,0.2,0.1,#4A4A4A,#4A4A4A,,-0.2,0.2,#56b4e9,#d55e00,,0.2,-0.1,#0072b2,#0072b2,,A1SQEJ3XQO0UKO,001,2020-12-11_18h18.46.806,change-localization,2020.1.2,Win32,60,,,0,7,7,7,1,,
,,0.194335938,0.193359375,1,0,0,3.271,probe5,"[0.2,0.2]",,,,,,9,probe5,0.05,0.05,-0.1,0,#4A4A4A,#4A4A4A,,0.1,0.1,#56b4e9,#56b4e9,,-0.2,0.1,#009e73,#009e73,,0.2,0.1,#cc79a7,#cc79a7,,0.2,0.2,#d55e00,#f0e442,,A1SQEJ3XQO0UKO,001,2020-12-11_18h18.46.806,change-localization,2020.1.2,Win32,60,,,0,8,8,8,1,,
,,-0.024414063,0.095703125,1,0,0,1.714,probe3,"[0,0.1]",,,,,,10,probe3,0.05,0.05,0.2,0.2,#f0e442,#f0e442,,0.1,-0.1,#e69f00,#e69f00,,0,0.1,#cc79a7,#4A4A4A,,-0.2,0.1,#56b4e9,#56b4e9,,0.2,0,#0072b2,#0072b2,,A1SQEJ3XQO0UKO,001,2020-12-11_18h18.46.806,change-localization,2020.1.2,Win32,60,,,0,9,9,9,1,,
,,0.108398438,-0.20703125,1,0,0,1.77,probe5,"[0.1,-0.2]",,,,,,11,probe5,0.05,0.05,0.2,0.2,#4A4A4A,#4A4A4A,,0.1,0.2,#0072b2,#0072b2,,0.1,-0.1,#cc79a7,#cc79a7,,0,-0.2,#009e73,#009e73,,0.1,-0.2,#f0e442,#d55e00,,A1SQEJ3XQO0UKO,001,2020-12-11_18h18.46.806,change-localization,2020.1.2,Win32,60,,,0,10,10,10,1,,
,,-0.08203125,-0.09375,1,0,0,13.809,probe1,"[-0.1,-0.1]",,,,,,12,probe4,0.05,0.05,-0.1,-0.1,#009e73,#009e73,,-0.1,0,#56b4e9,#56b4e9,,-0.1,-0.2,#0072b2,#0072b2,,0.1,0,#d55e00,#f0e442,,0,-0.1,#cc79a7,#cc79a7,,A1SQEJ3XQO0UKO,001,2020-12-11_18h18.46.806,change-localization,2020.1.2,Win32,60,,,0,11,11,11,1,,
,,-0.1953125,0.213867188,1,0,0,8.842,probe4,"[-0.2,0.2]",,,,,,13,probe4,0.05,0.05,0,-0.1,#f0e442,#f0e442,,0.1,-0.1,#d55e00,#d55e00,,0.1,0.1,#0072b2,#0072b2,,-0.2,0.2,#cc79a7,#4A4A4A,,0.1,0.2,#009e73,#009e73,,A1SQEJ3XQO0UKO,001,2020-12-11_18h18.46.806,change-localization,2020.1.2,Win32,60,,,0,12,12,12,1,,
,,0.017578125,0.203125,1,0,0,1.947,probe1,"[0,0.2]",,,,,,14,probe5,0.05,0.05,0,0.2,#cc79a7,#cc79a7,,0,-0.1,#4A4A4A,#4A4A4A,,-0.2,0,#56b4e9,#56b4e9,,0.1,0.1,#0072b2,#0072b2,,0.1,0.2,#009e73,#e69f00,,A1SQEJ3XQO0UKO,001,2020-12-11_18h18.46.806,change-localization,2020.1.2,Win32,60,,,0,13,13,13,1,,
,,0.208984375,0.09765625,1,0,0,1.378,probe3,"[0.2,0.1]",,,,,,15,probe3,0.05,0.05,0.2,0.2,#cc79a7,#cc79a7,,0,0.2,#56b4e9,#56b4e9,,0.2,0.1,#d55e00,#4A4A4A,,0.1,-0.1,#f0e442,#f0e442,,0.2,-0.1,#0072b2,#0072b2,,A1SQEJ3XQO0UKO,001,2020-12-11_18h18.46.806,change-localization,2020.1.2,Win32,60,,,0,14,14,14,1,,
,,0.090820313,0.096679688,1,0,0,1.427,probe3,"[0.1,0.1]",,,,,,16,probe3,0.05,0.05,-0.2,-0.1,#f0e442,#f0e442,,-0.2,0.2,#d55e00,#d55e00,,0.1,0.1,#009e73,#4A4A4A,,-0.2,0.1,#56b4e9,#56b4e9,,0,-0.1,#cc79a7,#cc79a7,,A1SQEJ3XQO0UKO,001,2020-12-11_18h18.46.806,change-localization,2020.1.2,Win32,60,,,0,15,15,15,1,,
,,-0.014648438,0.094726563,1,0,0,1.394,probe3,"[0,0.1]",,,,,,17,probe3,0.05,0.05,0.2,-0.1,#cc79a7,#cc79a7,,0,-0.2,#0072b2,#0072b2,,0,0.1,#4A4A4A,#e69f00,,-0.2,-0.1,#f0e442,#f0e442,,-0.1,-0.1,#009e73,#009e73,,A1SQEJ3XQO0UKO,001,2020-12-11_18h18.46.806,change-localization,2020.1.2,Win32,60,,,0,16,16,16,1,,
,,0.114257813,-0.094726563,1,0,0,1.883,probe4,"[0.1,-0.1]",,,,,,18,probe3,0.05,0.05,-0.1,0.1,#d55e00,#d55e00,,-0.1,0.2,#e69f00,#e69f00,,0.2,0,#009e73,#0072b2,,0.1,-0.1,#cc79a7,#cc79a7,,-0.2,0.2,#4A4A4A,#4A4A4A,,A1SQEJ3XQO0UKO,001,2020-12-11_18h18.46.806,change-localization,2020.1.2,Win32,60,,,0,17,17,17,1,,
,,-0.100585938,0.09375,1,0,0,4.242,probe3,"[-0.1,0.1]",,,,,,19,probe3,0.05,0.05,-0.1,0.2,#0072b2,#0072b2,,0,-0.1,#4A4A4A,#4A4A4A,,-0.1,0.1,#e69f00,#009e73,,0.2,0.1,#d55e00,#d55e00,,-0.2,0.1,#cc79a7,#cc79a7,,A1SQEJ3XQO0UKO,001,2020-12-11_18h18.46.806,change-localization,2020.1.2,Win32,60,,,0,18,18,18,1,,
,,0.19140625,-0.010742188,1,0,0,3.584,probe1,"[0.2,0]",,,,,,20,probe4,0.05,0.05,0.2,0,#56b4e9,#56b4e9,,-0.1,0.2,#009e73,#009e73,,-0.2,-0.2,#e69f00,#e69f00,,0,-0.1,#f0e442,#cc79a7,,-0.1,0,#4A4A4A,#4A4A4A,,A1SQEJ3XQO0UKO,001,2020-12-11_18h18.46.806,change-localization,2020.1.2,Win32,60,,,0,19,19,19,1,,
,,0.19140625,-0.010742188,1,0,0,1.156,probe3,"[0.2,0]",,,,,,21,probe3,0.05,0.05,-0.1,0.1,#0072b2,#0072b2,,-0.1,0.2,#009e73,#009e73,,0.2,0,#56b4e9,#4A4A4A,,-0.2,0.2,#f0e442,#f0e442,,0.2,0.1,#d55e00,#d55e00,,A1SQEJ3XQO0UKO,001,2020-12-11_18h18.46.806,change-localization,2020.1.2,Win32,60,,,0,20,20,20,1,,
,,-0.205078125,-0.111328125,1,0,0,3.678,probe4,"[-0.2,-0.1]",,,,,,22,probe4,0.05,0.05,0.2,-0.1,#d55e00,#d55e00,,0.2,0,#56b4e9,#56b4e9,,0.1,-0.2,#cc79a7,#cc79a7,,-0.2,-0.1,#4A4A4A,#009e73,,0,-0.2,#e69f00,#e69f00,,A1SQEJ3XQO0UKO,001,2020-12-11_18h18.46.806,change-localization,2020.1.2,Win32,60,,,0,21,21,21,1,,
,,0.09765625,0.092773438,1,0,0,3.636,probe1,"[0.1,0.1]",,,,,,23,probe4,0.05,0.05,0.1,0.1,#56b4e9,#56b4e9,,-0.2,-0.1,#0072b2,#0072b2,,0.2,0,#d55e00,#d55e00,,-0.2,-0.2,#cc79a7,#009e73,,0.1,-0.2,#4A4A4A,#4A4A4A,,A1SQEJ3XQO0UKO,001,2020-12-11_18h18.46.806,change-localization,2020.1.2,Win32,60,,,0,22,22,22,1,,
,,0.196289063,0.203125,1,0,0,3.879,probe2,"[0.2,0.2]",,,,,,24,probe2,0.05,0.05,-0.1,-0.2,#4A4A4A,#4A4A4A,,0.2,0.2,#d55e00,#e69f00,,0.1,-0.1,#f0e442,#f0e442,,0.1,0.1,#56b4e9,#56b4e9,,-0.2,0.1,#cc79a7,#cc79a7,,A1SQEJ3XQO0UKO,001,2020-12-11_18h18.46.806,change-localization,2020.1.2,Win32,60,,,0,23,23,23,1,,
,,0.010742188,0.193359375,1,0,0,1.554,probe4,"[0,0.2]",,,,,,25,probe3,0.05,0.05,-0.2,-0.2,#f0e442,#f0e442,,-0.1,-0.1,#4A4A4A,#4A4A4A,,0.2,0,#d55e00,#cc79a7,,0,0.2,#0072b2,#0072b2,,-0.2,0.1,#009e73,#009e73,,A1SQEJ3XQO0UKO,001,2020-12-11_18h18.46.806,change-localization,2020.1.2,Win32,60,,,0,24,24,24,1,,
,,-0.107421875,-0.194335938,1,0,0,2.526,probe3,"[-0.1,-0.2]",,,,,,26,probe3,0.05,0.05,0.1,-0.1,#e69f00,#e69f00,,-0.2,0,#56b4e9,#56b4e9,,-0.1,-0.2,#009e73,#d55e00,,-0.2,-0.1,#4A4A4A,#4A4A4A,,0.1,0,#cc79a7,#cc79a7,,A1SQEJ3XQO0UKO,001,2020-12-11_18h18.46.806,change-localization,2020.1.2,Win32,60,,,0,25,25,25,1,,
,,-0.197265625,-0.102539063,1,0,0,3.147,probe5,"[-0.2,-0.1]",,,,,,27,probe5,0.05,0.05,-0.1,-0.2,#009e73,#009e73,,0.2,0,#cc79a7,#cc79a7,,-0.1,-0.1,#e69f00,#e69f00,,0.1,0.1,#d55e00,#d55e00,,-0.2,-0.1,#4A4A4A,#0072b2,,A1SQEJ3XQO0UKO,001,2020-12-11_18h18.46.806,change-localization,2020.1.2,Win32,60,,,0,26,26,26,1,,
,,0.006835938,-0.206054688,1,0,0,3.02,probe3,"[0,-0.2]",,,,,,28,probe5,0.05,0.05,-0.1,0.2,#009e73,#009e73,,-0.2,0.1,#56b4e9,#56b4e9,,0,-0.2,#d55e00,#d55e00,,0.1,0,#0072b2,#0072b2,,0.1,0.1,#f0e442,#e69f00,,A1SQEJ3XQO0UKO,001,2020-12-11_18h18.46.806,change-localization,2020.1.2,Win32,60,,,0,27,27,27,1,,
,,-0.220703125,0.209960938,1,0,0,1.818,probe2,"[-0.2,0.2]",,,,,,29,probe1,0.05,0.05,0.1,-0.1,#4A4A4A,#56b4e9,,-0.2,0.2,#e69f00,#e69f00,,-0.1,-0.1,#f0e442,#f0e442,,0.1,0.2,#0072b2,#0072b2,,-0.1,-0.2,#cc79a7,#cc79a7,,A1SQEJ3XQO0UKO,001,2020-12-11_18h18.46.806,change-localization,2020.1.2,Win32,60,,,0,28,28,28,1,,
,,-0.078125,-0.206054688,1,0,0,9.271,probe2,"[-0.1,-0.2]",,,,,,30,probe2,0.05,0.05,0.1,0.2,#f0e442,#f0e442,,-0.1,-0.2,#d55e00,#4A4A4A,,0,-0.2,#cc79a7,#cc79a7,,0.1,-0.2,#0072b2,#0072b2,,-0.2,0,#009e73,#009e73,,A1SQEJ3XQO0UKO,001,2020-12-11_18h18.46.806,change-localization,2020.1.2,Win32,60,,,0,29,29,29,1,,
,,0.104492188,-0.005859375,1,0,0,4.638,probe2,"[0.1,0]",,,,,,31,probe5,0.05,0.05,0,-0.2,#d55e00,#d55e00,,0.1,0,#e69f00,#e69f00,,0.1,0.2,#f0e442,#f0e442,,-0.2,-0.1,#cc79a7,#cc79a7,,-0.1,-0.1,#009e73,#4A4A4A,,A1SQEJ3XQO0UKO,001,2020-12-11_18h18.46.806,change-localization,2020.1.2,Win32,60,,,0,30,30,30,1,,
,,0.206054688,0.180664063,1,0,0,3.304,probe1,"[0.2,0.2]",,,,,,32,probe3,0.05,0.05,0.2,0.2,#56b4e9,#56b4e9,,-0.1,-0.1,#009e73,#009e73,,0.2,0.1,#cc79a7,#0072b2,,-0.2,0.1,#4A4A4A,#4A4A4A,,-0.2,-0.1,#f0e442,#f0e442,,A1SQEJ3XQO0UKO,001,2020-12-11_18h18.46.806,change-localization,2020.1.2,Win32,60,,,0,31,31,31,1,,
,,-0.09765625,-0.10546875,1,0,0,3.001,probe1,"[-0.1,-0.1]",,,,,,33,probe3,0.05,0.05,-0.1,-0.1,#0072b2,#0072b2,,0.1,0.1,#cc79a7,#cc79a7,,-0.1,0.1,#f0e442,#009e73,,0,-0.2,#56b4e9,#56b4e9,,0.1,0.2,#e69f00,#e69f00,,A1SQEJ3XQO0UKO,001,2020-12-11_18h18.46.806,change-localization,2020.1.2,Win32,60,,,0,32,32,32,1,,
,,-0.189453125,-0.00390625,1,0,0,2.095,probe5,"[-0.2,0]",,,,,,34,probe5,0.05,0.05,0.2,0.1,#e69f00,#e69f00,,-0.2,0.1,#cc79a7,#cc79a7,,0.1,-0.2,#0072b2,#0072b2,,0.2,-0.2,#d55e00,#d55e00,,-0.2,0,#56b4e9,#009e73,,A1SQEJ3XQO0UKO,001,2020-12-11_18h18.46.806,change-localization,2020.1.2,Win32,60,,,0,33,33,33,1,,
,,0.010742188,0.190429688,1,0,0,1.776,probe4,"[0,0.2]",,,,,,35,probe2,0.05,0.05,0.2,0,#56b4e9,#56b4e9,,0.2,-0.1,#e69f00,#009e73,,0.1,-0.1,#f0e442,#f0e442,,0,0.2,#d55e00,#d55e00,,0.1,0.2,#cc79a7,#cc79a7,,A1SQEJ3XQO0UKO,001,2020-12-11_18h18.46.806,change-localization,2020.1.2,Win32,60,,,0,34,34,34,1,,
,,-0.008789063,0.10546875,1,0,0,1.483,probe1,"[0,0.1]",,,,,,36,probe3,0.05,0.05,0,0.1,#4A4A4A,#4A4A4A,,0.2,0.1,#009e73,#009e73,,-0.2,-0.1,#f0e442,#56b4e9,,-0.1,-0.1,#e69f00,#e69f00,,0.1,0,#0072b2,#0072b2,,A1SQEJ3XQO0UKO,001,2020-12-11_18h18.46.806,change-localization,2020.1.2,Win32,60,,,0,35,35,35,1,,
,,0.09765625,0.002929688,1,0,0,1.431,probe5,"[0.1,0]",,,,,,37,probe5,0.05,0.05,-0.2,0.1,#e69f00,#e69f00,,0.1,0.1,#0072b2,#0072b2,,-0.2,0,#d55e00,#d55e00,,-0.1,0.2,#cc79a7,#cc79a7,,0.1,0,#009e73,#f0e442,,A1SQEJ3XQO0UKO,001,2020-12-11_18h18.46.806,change-localization,2020.1.2,Win32,60,,,0,36,36,36,1,,
,,0.09765625,0.002929688,1,0,0,1.457,probe4,"[0.1,0]",,,,,,38,probe4,0.05,0.05,0.2,-0.2,#4A4A4A,#4A4A4A,,0.2,0,#0072b2,#0072b2,,0.1,-0.1,#e69f00,#e69f00,,0.1,0,#d55e00,#cc79a7,,0,-0.1,#009e73,#009e73,,A1SQEJ3XQO0UKO,001,2020-12-11_18h18.46.806,change-localization,2020.1.2,Win32,60,,,0,37,37,37,1,,
,,-0.204101563,-0.095703125,1,0,0,2.044,probe2,"[-0.2,-0.1]",,,,,,39,probe4,0.05,0.05,0.1,-0.1,#e69f00,#e69f00,,-0.2,-0.1,#cc79a7,#cc79a7,,0.2,0.1,#d55e00,#d55e00,,-0.2,0.2,#56b4e9,#f0e442,,0,-0.1,#0072b2,#0072b2,,A1SQEJ3XQO0UKO,001,2020-12-11_18h18.46.806,change-localization,2020.1.2,Win32,60,,,0,38,38,38,1,,
,,-0.202148438,0.094726563,1,0,0,2.336,probe1,"[-0.2,0.1]",,,,,,40,probe1,0.05,0.05,-0.2,0.1,#4A4A4A,#d55e00,,0.2,0.2,#009e73,#009e73,,-0.1,-0.1,#cc79a7,#cc79a7,,0.2,-0.2,#e69f00,#e69f00,,0.1,-0.1,#56b4e9,#56b4e9,,A1SQEJ3XQO0UKO,001,2020-12-11_18h18.46.806,change-localization,2020.1.2,Win32,60,,,0,39,39,39,1,,
,,-0.090820313,0.006835938,1,0,0,3.43,probe4,"[-0.1,0]",,,,,,41,probe4,0.05,0.05,0.2,0.1,#009e73,#009e73,,-0.2,-0.1,#0072b2,#0072b2,,-0.2,-0.2,#56b4e9,#56b4e9,,-0.1,0,#f0e442,#cc79a7,,0,-0.2,#d55e00,#d55e00,,A1SQEJ3XQO0UKO,001,2020-12-11_18h18.46.806,change-localization,2020.1.2,Win32,60,,,0,40,40,40,1,,
,,0.01171875,-0.197265625,1,0,0,1.505,probe4,"[0,-0.2]",,,,,,42,probe4,0.05,0.05,-0.1,-0.2,#009e73,#009e73,,-0.1,0.1,#cc79a7,#cc79a7,,0.1,0.1,#56b4e9,#56b4e9,,0,-0.2,#e69f00,#d55e00,,-0.1,0,#0072b2,#0072b2,,A1SQEJ3XQO0UKO,001,2020-12-11_18h18.46.806,change-localization,2020.1.2,Win32,60,,,0,41,41,41,1,,
,,0.192382813,-0.11328125,1,0,0,2.327,probe1,"[0.2,-0.1]",,,,,,43,probe1,0.05,0.05,0.2,-0.1,#e69f00,#009e73,,0.1,0,#cc79a7,#cc79a7,,-0.2,-0.2,#f0e442,#f0e442,,0.2,-0.2,#56b4e9,#56b4e9,,-0.2,0.1,#4A4A4A,#4A4A4A,,A1SQEJ3XQO0UKO,001,2020-12-11_18h18.46.806,change-localization,2020.1.2,Win32,60,,,0,42,42,42,1,,
,,-0.084960938,-0.078125,1,0,0,2.48,probe5,"[-0.1,-0.1]",,,,,,44,probe1,0.05,0.05,-0.1,0.2,#56b4e9,#e69f00,,0.2,0.1,#4A4A4A,#4A4A4A,,0.1,0,#cc79a7,#cc79a7,,0.1,0.2,#f0e442,#f0e442,,-0.1,-0.1,#d55e00,#d55e00,,A1SQEJ3XQO0UKO,001,2020-12-11_18h18.46.806,change-localization,2020.1.2,Win32,60,,,0,43,43,43,1,,
,,-0.087890625,0.188476563,1,0,0,1.776,probe4,"[-0.1,0.2]",,,,,,45,probe3,0.05,0.05,-0.2,0.2,#0072b2,#0072b2,,-0.2,-0.1,#56b4e9,#56b4e9,,-0.1,0.1,#f0e442,#e69f00,,-0.1,0.2,#d55e00,#d55e00,,0,-0.2,#cc79a7,#cc79a7,,A1SQEJ3XQO0UKO,001,2020-12-11_18h18.46.806,change-localization,2020.1.2,Win32,60,,,0,44,44,44,1,,
,,0.200195313,-0.008789063,1,0,0,4.319,probe5,"[0.2,0]",,,,,,46,probe5,0.05,0.05,0.2,0.1,#0072b2,#0072b2,,0.1,0.2,#f0e442,#f0e442,,0.2,-0.2,#009e73,#009e73,,0.2,0.2,#4A4A4A,#4A4A4A,,0.2,0,#cc79a7,#e69f00,,A1SQEJ3XQO0UKO,001,2020-12-11_18h18.46.806,change-localization,2020.1.2,Win32,60,,,0,45,45,45,1,,
,,-0.088867188,0.098632813,1,0,0,5.181,probe5,"[-0.1,0.1]",,,,,,47,probe3,0.05,0.05,0,-0.1,#009e73,#009e73,,-0.2,0.2,#f0e442,#f0e442,,0.2,0.2,#56b4e9,#cc79a7,,-0.1,0.2,#4A4A4A,#4A4A4A,,-0.1,0.1,#e69f00,#e69f00,,A1SQEJ3XQO0UKO,001,2020-12-11_18h18.46.806,change-localization,2020.1.2,Win32,60,,,0,46,46,46,1,,
,,-0.107421875,0.11328125,1,0,0,4.344,probe2,"[-0.1,0.1]",,,,,,48,probe4,0.05,0.05,0.2,-0.2,#cc79a7,#cc79a7,,-0.1,0.1,#009e73,#009e73,,0.1,-0.2,#f0e442,#f0e442,,-0.2,-0.1,#d55e00,#0072b2,,-0.1,0,#56b4e9,#56b4e9,,A1SQEJ3XQO0UKO,001,2020-12-11_18h18.46.806,change-localization,2020.1.2,Win32,60,,,0,47,47,47,1,,
,,-0.120117188,-0.09375,1,0,0,1.534,probe5,"[-0.1,-0.1]",,,,,,49,probe2,0.05,0.05,0,-0.2,#e69f00,#e69f00,,-0.2,0,#cc79a7,#0072b2,,-0.1,0.2,#f0e442,#f0e442,,0.1,0.2,#4A4A4A,#4A4A4A,,-0.1,-0.1,#56b4e9,#56b4e9,,A1SQEJ3XQO0UKO,001,2020-12-11_18h18.46.806,change-localization,2020.1.2,Win32,60,,,0,48,48,48,1,,
,,-0.10546875,0.001953125,1,0,0,1.592,probe4,"[-0.1,0]",,,,,,50,probe4,0.05,0.05,0.2,0.1,#0072b2,#0072b2,,0.1,0.1,#cc79a7,#cc79a7,,0.1,-0.2,#56b4e9,#56b4e9,,-0.1,0,#009e73,#e69f00,,0,0.1,#d55e00,#d55e00,,A1SQEJ3XQO0UKO,001,2020-12-11_18h18.46.806,change-localization,2020.1.2,Win32,60,,,0,49,49,49,1,,
,,,,,,,,,,,,,,,,,,,,,,,,,,,,,,,,,,,,,,,,,,,,A1SQEJ3XQO0UKO,001,2020-12-11_18h18.46.806,change-localization,2020.1.2,Win32,60,,,,,,,,c,15.177
