key_resp.keys,key_resp.rt,mouse.x,mouse.y,mouse.leftButton,mouse.midButton,mouse.rightButton,mouse.time,mouse.clicked_name,mouse.clicked_pos,training.thisRepN,training.thisTrialN,training.thisN,training.thisIndex,training.ran,trial,answer,height,width,x1,y1,stim_color1,probe_color1,copy_color1,x2,y2,stim_color2,probe_color2,copy_color2,x3,y3,stim_color3,probe_color3,copy_color3,x4,y4,stim_color4,probe_color4,copy_color4,x5,y5,stim_color5,probe_color5,copy_color5,participant,session,date,expName,psychopyVersion,OS,frameRate,key_resp_2.keys,key_resp_2.rt,trials.thisRepN,trials.thisTrialN,trials.thisN,trials.thisIndex,trials.ran,completion_keys.keys,completion_keys.rt
c,5.216875,0.10546875,-0.072916667,1,0,0,5.300405,probe3,"[-0.1,-0.2]",0,0,0,0,1,1,probe4,0.05,0.05,0.1,0.2,#0072b2,#0072b2,#0072b2,0.1,-0.1,#e69f00,#e69f00,#e69f00,-0.1,-0.2,#cc79a7,#cc79a7,#cc79a7,0.2,-0.1,#4A4A4A,#f0e442,#FFFFFF,0.2,0,#009e73,#009e73,#009e73,A1TGZ063G5UKEC,001,2020-12-11_18h57.20.306,change-localization,2020.1.2,Win32,60,,,,,,,,,
,,0.071614583,0.040364583,1,0,0,1.349685,probe3,"[0.1,0]",0,1,1,1,1,2,probe1,0.05,0.05,0.2,0,#d55e00,#009e73,#FFFFFF,0.2,-0.1,#e69f00,#e69f00,#e69f00,0.1,0,#4A4A4A,#4A4A4A,#4A4A4A,-0.1,0.1,#56b4e9,#56b4e9,#56b4e9,-0.1,0,#cc79a7,#cc79a7,#cc79a7,A1TGZ063G5UKEC,001,2020-12-11_18h57.20.306,change-localization,2020.1.2,Win32,60,,,,,,,,,
,,-0.22265625,0.010416667,1,0,0,1.786165,probe3,"[-0.2,0]",0,2,2,2,1,3,probe1,0.05,0.05,-0.2,-0.2,#f0e442,#009e73,#FFFFFF,0.2,-0.1,#d55e00,#d55e00,#d55e00,-0.2,0,#4A4A4A,#4A4A4A,#4A4A4A,-0.1,-0.1,#0072b2,#0072b2,#0072b2,0,-0.1,#56b4e9,#56b4e9,#56b4e9,A1TGZ063G5UKEC,001,2020-12-11_18h57.20.306,change-localization,2020.1.2,Win32,60,,,,,,,,,
,,0.19921875,0.208333333,1,0,0,1.516915,probe1,"[0.2,0.2]",0,3,3,3,1,4,probe1,0.05,0.05,0.2,0.2,#d55e00,#56b4e9,#FFFFFF,-0.2,0.2,#f0e442,#f0e442,#f0e442,0.2,-0.2,#0072b2,#0072b2,#0072b2,-0.2,0,#cc79a7,#cc79a7,#cc79a7,-0.2,0.1,#4A4A4A,#4A4A4A,#4A4A4A,A1TGZ063G5UKEC,001,2020-12-11_18h57.20.306,change-localization,2020.1.2,Win32,60,,,,,,,,,
,,-0.08984375,-0.07421875,1,0,0,1.200405,probe4,"[-0.1,-0.1]",0,4,4,4,1,5,probe3,0.05,0.05,-0.2,0.1,#56b4e9,#56b4e9,#56b4e9,0,0.2,#009e73,#009e73,#009e73,0,0.1,#0072b2,#cc79a7,#FFFFFF,-0.1,-0.1,#4A4A4A,#4A4A4A,#4A4A4A,0.2,0,#f0e442,#f0e442,#f0e442,A1TGZ063G5UKEC,001,2020-12-11_18h57.20.306,change-localization,2020.1.2,Win32,60,,,,,,,,,
,,0.010416667,0.0859375,1,0,0,1.27001,probe2,"[0,0.1]",0,5,5,5,1,6,probe5,0.05,0.05,-0.1,0.1,#f0e442,#f0e442,#f0e442,0,0.1,#009e73,#009e73,#009e73,-0.2,0,#4A4A4A,#4A4A4A,#4A4A4A,0,-0.2,#d55e00,#d55e00,#d55e00,0.1,0,#cc79a7,#0072b2,#FFFFFF,A1TGZ063G5UKEC,001,2020-12-11_18h57.20.306,change-localization,2020.1.2,Win32,60,,,,,,,,,
,,0.098958333,0.204427083,1,0,0,1.083735,probe2,"[0.1,0.2]",0,6,6,6,1,7,probe2,0.05,0.05,-0.2,-0.2,#4A4A4A,#4A4A4A,#4A4A4A,0.1,0.2,#0072b2,#d55e00,#FFFFFF,-0.1,-0.2,#f0e442,#f0e442,#f0e442,-0.2,0.2,#009e73,#009e73,#009e73,0.2,0.2,#e69f00,#e69f00,#e69f00,A1TGZ063G5UKEC,001,2020-12-11_18h57.20.306,change-localization,2020.1.2,Win32,60,,,,,,,,,
,,0.098958333,-0.236979167,1,0,0,1.26625,probe1,"[0.1,-0.2]",0,7,7,7,1,8,probe1,0.05,0.05,0.1,-0.2,#009e73,#f0e442,#FFFFFF,-0.1,0,#d55e00,#d55e00,#d55e00,-0.1,0.1,#4A4A4A,#4A4A4A,#4A4A4A,-0.2,0,#cc79a7,#cc79a7,#cc79a7,0.2,0,#e69f00,#e69f00,#e69f00,A1TGZ063G5UKEC,001,2020-12-11_18h57.20.306,change-localization,2020.1.2,Win32,60,,,,,,,,,
,,0.098958333,-0.18359375,1,0,0,1.133125,probe1,"[0.1,-0.2]",0,8,8,8,1,9,probe1,0.05,0.05,0.1,-0.2,#0072b2,#e69f00,#FFFFFF,-0.1,0.2,#f0e442,#f0e442,#f0e442,-0.2,0.1,#d55e00,#d55e00,#d55e00,0.2,0.2,#cc79a7,#cc79a7,#cc79a7,0.1,0.1,#56b4e9,#56b4e9,#56b4e9,A1TGZ063G5UKEC,001,2020-12-11_18h57.20.306,change-localization,2020.1.2,Win32,60,,,,,,,,,
,,-0.001302083,0.204427083,1,0,0,0.782915,probe2,"[0,0.2]",0,9,9,9,1,10,probe1,0.05,0.05,-0.1,-0.1,#4A4A4A,#f0e442,#FFFFFF,0,0.2,#cc79a7,#cc79a7,#cc79a7,0.2,-0.2,#e69f00,#e69f00,#e69f00,0.1,-0.2,#009e73,#009e73,#009e73,0.1,0.1,#d55e00,#d55e00,#d55e00,A1TGZ063G5UKEC,001,2020-12-11_18h57.20.306,change-localization,2020.1.2,Win32,60,,,,,,,,,
,,-0.108072917,0.20703125,1,0,0,0.969455,probe2,"[-0.1,0.2]",,,,,,1,probe2,0.05,0.05,-0.2,0.2,#009e73,#009e73,,-0.1,0.2,#f0e442,#e69f00,,-0.1,0,#0072b2,#0072b2,,0,-0.2,#cc79a7,#cc79a7,,0,0.2,#d55e00,#d55e00,,A1TGZ063G5UKEC,001,2020-12-11_18h57.20.306,change-localization,2020.1.2,Win32,60,c,6.147135,0,0,0,0,1,,
,,0.00390625,-0.10546875,1,0,0,0.86707,probe5,"[0,-0.1]",,,,,,2,probe5,0.05,0.05,0,0.1,#009e73,#009e73,,0.2,0.1,#4A4A4A,#4A4A4A,,-0.1,-0.1,#cc79a7,#cc79a7,,0.1,0.1,#d55e00,#d55e00,,0,-0.1,#56b4e9,#e69f00,,A1TGZ063G5UKEC,001,2020-12-11_18h57.20.306,change-localization,2020.1.2,Win32,60,,,0,1,1,1,1,,
,,0.201822917,-0.001302083,1,0,0,1.71645,probe2,"[0.2,0]",,,,,,3,probe4,0.05,0.05,0.1,-0.1,#56b4e9,#56b4e9,,0.2,0,#f0e442,#f0e442,,0.2,-0.1,#e69f00,#e69f00,,-0.1,0.1,#4A4A4A,#009e73,,-0.1,0.2,#d55e00,#d55e00,,A1TGZ063G5UKEC,001,2020-12-11_18h57.20.306,change-localization,2020.1.2,Win32,60,,,0,2,2,2,1,,
,,-0.192708333,-0.028645833,1,0,0,1.285805,probe5,"[-0.2,0]",,,,,,4,probe5,0.05,0.05,0.2,0,#56b4e9,#56b4e9,,-0.2,-0.2,#cc79a7,#cc79a7,,0,0.2,#4A4A4A,#4A4A4A,,0.2,-0.2,#e69f00,#e69f00,,-0.2,0,#f0e442,#009e73,,A1TGZ063G5UKEC,001,2020-12-11_18h57.20.306,change-localization,2020.1.2,Win32,60,,,0,3,3,3,1,,
,,-0.102864583,-0.08984375,1,0,0,0.883435,probe3,"[-0.1,-0.1]",,,,,,5,probe3,0.05,0.05,-0.2,0.1,#4A4A4A,#4A4A4A,,0.2,0.2,#009e73,#009e73,,-0.1,-0.1,#0072b2,#f0e442,,0.2,0,#cc79a7,#cc79a7,,0.1,0.1,#e69f00,#e69f00,,A1TGZ063G5UKEC,001,2020-12-11_18h57.20.306,change-localization,2020.1.2,Win32,60,,,0,4,4,4,1,,
,,0.005208333,0.180989583,1,0,0,0.93375,probe4,"[0,0.2]",,,,,,6,probe4,0.05,0.05,-0.1,0.1,#d55e00,#d55e00,,-0.2,0.2,#0072b2,#0072b2,,0,-0.1,#e69f00,#e69f00,,0,0.2,#56b4e9,#4A4A4A,,-0.2,-0.2,#009e73,#009e73,,A1TGZ063G5UKEC,001,2020-12-11_18h57.20.306,change-localization,2020.1.2,Win32,60,,,0,5,5,5,1,,
,,-0.200520833,0.192708333,1,0,0,1.16881,probe3,"[-0.2,0.2]",,,,,,7,probe4,0.05,0.05,0.2,-0.1,#56b4e9,#56b4e9,,-0.1,-0.1,#e69f00,#e69f00,,-0.2,0.2,#009e73,#009e73,,0.2,0.2,#cc79a7,#4A4A4A,,0.2,-0.2,#d55e00,#d55e00,,A1TGZ063G5UKEC,001,2020-12-11_18h57.20.306,change-localization,2020.1.2,Win32,60,,,0,6,6,6,1,,
,,-0.203125,0.098958333,1,0,0,0.716445,probe1,"[-0.2,0.1]",,,,,,8,probe4,0.05,0.05,-0.2,0.1,#e69f00,#e69f00,,0.1,0.2,#cc79a7,#cc79a7,,0.2,0.1,#4A4A4A,#4A4A4A,,-0.2,0.2,#56b4e9,#d55e00,,0.2,-0.1,#0072b2,#0072b2,,A1TGZ063G5UKEC,001,2020-12-11_18h57.20.306,change-localization,2020.1.2,Win32,60,,,0,7,7,7,1,,
,,0.200520833,0.203125,1,0,0,0.952205,probe5,"[0.2,0.2]",,,,,,9,probe5,0.05,0.05,-0.1,0,#4A4A4A,#4A4A4A,,0.1,0.1,#56b4e9,#56b4e9,,-0.2,0.1,#009e73,#009e73,,0.2,0.1,#cc79a7,#cc79a7,,0.2,0.2,#d55e00,#f0e442,,A1TGZ063G5UKEC,001,2020-12-11_18h57.20.306,change-localization,2020.1.2,Win32,60,,,0,8,8,8,1,,
,,0.013020833,0.119791667,1,0,0,2.80029,probe3,"[0,0.1]",,,,,,10,probe3,0.05,0.05,0.2,0.2,#f0e442,#f0e442,,0.1,-0.1,#e69f00,#e69f00,,0,0.1,#cc79a7,#4A4A4A,,-0.2,0.1,#56b4e9,#56b4e9,,0.2,0,#0072b2,#0072b2,,A1TGZ063G5UKEC,001,2020-12-11_18h57.20.306,change-localization,2020.1.2,Win32,60,,,0,9,9,9,1,,
,,0.095052083,-0.19140625,1,0,0,0.4997,probe5,"[0.1,-0.2]",,,,,,11,probe5,0.05,0.05,0.2,0.2,#4A4A4A,#4A4A4A,,0.1,0.2,#0072b2,#0072b2,,0.1,-0.1,#cc79a7,#cc79a7,,0,-0.2,#009e73,#009e73,,0.1,-0.2,#f0e442,#d55e00,,A1TGZ063G5UKEC,001,2020-12-11_18h57.20.306,change-localization,2020.1.2,Win32,60,,,0,10,10,10,1,,
,,-0.022135417,-0.100260417,1,0,0,0.333015,probe5,"[0,-0.1]",,,,,,12,probe4,0.05,0.05,-0.1,-0.1,#009e73,#009e73,,-0.1,0,#56b4e9,#56b4e9,,-0.1,-0.2,#0072b2,#0072b2,,0.1,0,#d55e00,#f0e442,,0,-0.1,#cc79a7,#cc79a7,,A1TGZ063G5UKEC,001,2020-12-11_18h57.20.306,change-localization,2020.1.2,Win32,60,,,0,11,11,11,1,,
,,0.10546875,-0.11328125,1,0,0,14.995665,probe2,"[0.1,-0.1]",,,,,,13,probe4,0.05,0.05,0,-0.1,#f0e442,#f0e442,,0.1,-0.1,#d55e00,#d55e00,,0.1,0.1,#0072b2,#0072b2,,-0.2,0.2,#cc79a7,#4A4A4A,,0.1,0.2,#009e73,#009e73,,A1TGZ063G5UKEC,001,2020-12-11_18h57.20.306,change-localization,2020.1.2,Win32,60,,,0,12,12,12,1,,
,,0.102864583,0.182291667,1,0,0,0.64994,probe5,"[0.1,0.2]",,,,,,14,probe5,0.05,0.05,0,0.2,#cc79a7,#cc79a7,,0,-0.1,#4A4A4A,#4A4A4A,,-0.2,0,#56b4e9,#56b4e9,,0.1,0.1,#0072b2,#0072b2,,0.1,0.2,#009e73,#e69f00,,A1TGZ063G5UKEC,001,2020-12-11_18h57.20.306,change-localization,2020.1.2,Win32,60,,,0,13,13,13,1,,
,,0.209635417,0.095052083,1,0,0,0.619305,probe3,"[0.2,0.1]",,,,,,15,probe3,0.05,0.05,0.2,0.2,#cc79a7,#cc79a7,,0,0.2,#56b4e9,#56b4e9,,0.2,0.1,#d55e00,#4A4A4A,,0.1,-0.1,#f0e442,#f0e442,,0.2,-0.1,#0072b2,#0072b2,,A1TGZ063G5UKEC,001,2020-12-11_18h57.20.306,change-localization,2020.1.2,Win32,60,,,0,14,14,14,1,,
,,-0.200520833,-0.138020833,1,0,0,0.63314,probe1,"[-0.2,-0.1]",,,,,,16,probe3,0.05,0.05,-0.2,-0.1,#f0e442,#f0e442,,-0.2,0.2,#d55e00,#d55e00,,0.1,0.1,#009e73,#4A4A4A,,-0.2,0.1,#56b4e9,#56b4e9,,0,-0.1,#cc79a7,#cc79a7,,A1TGZ063G5UKEC,001,2020-12-11_18h57.20.306,change-localization,2020.1.2,Win32,60,,,0,15,15,15,1,,
,,-0.106770833,-0.108072917,1,0,0,0.69939,probe5,"[-0.1,-0.1]",,,,,,17,probe3,0.05,0.05,0.2,-0.1,#cc79a7,#cc79a7,,0,-0.2,#0072b2,#0072b2,,0,0.1,#4A4A4A,#e69f00,,-0.2,-0.1,#f0e442,#f0e442,,-0.1,-0.1,#009e73,#009e73,,A1TGZ063G5UKEC,001,2020-12-11_18h57.20.306,change-localization,2020.1.2,Win32,60,,,0,16,16,16,1,,
,,-0.216145833,0.21484375,1,0,0,2.41632,probe5,"[-0.2,0.2]",,,,,,18,probe3,0.05,0.05,-0.1,0.1,#d55e00,#d55e00,,-0.1,0.2,#e69f00,#e69f00,,0.2,0,#009e73,#0072b2,,0.1,-0.1,#cc79a7,#cc79a7,,-0.2,0.2,#4A4A4A,#4A4A4A,,A1TGZ063G5UKEC,001,2020-12-11_18h57.20.306,change-localization,2020.1.2,Win32,60,,,0,17,17,17,1,,
,,-0.096354167,0.114583333,1,0,0,1.017025,probe3,"[-0.1,0.1]",,,,,,19,probe3,0.05,0.05,-0.1,0.2,#0072b2,#0072b2,,0,-0.1,#4A4A4A,#4A4A4A,,-0.1,0.1,#e69f00,#009e73,,0.2,0.1,#d55e00,#d55e00,,-0.2,0.1,#cc79a7,#cc79a7,,A1TGZ063G5UKEC,001,2020-12-11_18h57.20.306,change-localization,2020.1.2,Win32,60,,,0,18,18,18,1,,
,,-0.001302083,-0.12890625,1,0,0,0.81645,probe4,"[0,-0.1]",,,,,,20,probe4,0.05,0.05,0.2,0,#56b4e9,#56b4e9,,-0.1,0.2,#009e73,#009e73,,-0.2,-0.2,#e69f00,#e69f00,,0,-0.1,#f0e442,#cc79a7,,-0.1,0,#4A4A4A,#4A4A4A,,A1TGZ063G5UKEC,001,2020-12-11_18h57.20.306,change-localization,2020.1.2,Win32,60,,,0,19,19,19,1,,
,,0.209635417,0.001302083,1,0,0,0.699815,probe3,"[0.2,0]",,,,,,21,probe3,0.05,0.05,-0.1,0.1,#0072b2,#0072b2,,-0.1,0.2,#009e73,#009e73,,0.2,0,#56b4e9,#4A4A4A,,-0.2,0.2,#f0e442,#f0e442,,0.2,0.1,#d55e00,#d55e00,,A1TGZ063G5UKEC,001,2020-12-11_18h57.20.306,change-localization,2020.1.2,Win32,60,,,0,20,20,20,1,,
,,-0.236979167,-0.10546875,1,0,0,0.81638,probe4,"[-0.2,-0.1]",,,,,,22,probe4,0.05,0.05,0.2,-0.1,#d55e00,#d55e00,,0.2,0,#56b4e9,#56b4e9,,0.1,-0.2,#cc79a7,#cc79a7,,-0.2,-0.1,#4A4A4A,#009e73,,0,-0.2,#e69f00,#e69f00,,A1TGZ063G5UKEC,001,2020-12-11_18h57.20.306,change-localization,2020.1.2,Win32,60,,,0,21,21,21,1,,
,,0.200520833,-0.0078125,1,0,0,0.93333,probe3,"[0.2,0]",,,,,,23,probe4,0.05,0.05,0.1,0.1,#56b4e9,#56b4e9,,-0.2,-0.1,#0072b2,#0072b2,,0.2,0,#d55e00,#d55e00,,-0.2,-0.2,#cc79a7,#009e73,,0.1,-0.2,#4A4A4A,#4A4A4A,,A1TGZ063G5UKEC,001,2020-12-11_18h57.20.306,change-localization,2020.1.2,Win32,60,,,0,22,22,22,1,,
,,0.123697917,0.118489583,1,0,0,0.84942,probe4,"[0.1,0.1]",,,,,,24,probe2,0.05,0.05,-0.1,-0.2,#4A4A4A,#4A4A4A,,0.2,0.2,#d55e00,#e69f00,,0.1,-0.1,#f0e442,#f0e442,,0.1,0.1,#56b4e9,#56b4e9,,-0.2,0.1,#cc79a7,#cc79a7,,A1TGZ063G5UKEC,001,2020-12-11_18h57.20.306,change-localization,2020.1.2,Win32,60,,,0,23,23,23,1,,
,,0.188802083,0.005208333,1,0,0,0.881545,probe3,"[0.2,0]",,,,,,25,probe3,0.05,0.05,-0.2,-0.2,#f0e442,#f0e442,,-0.1,-0.1,#4A4A4A,#4A4A4A,,0.2,0,#d55e00,#cc79a7,,0,0.2,#0072b2,#0072b2,,-0.2,0.1,#009e73,#009e73,,A1TGZ063G5UKEC,001,2020-12-11_18h57.20.306,change-localization,2020.1.2,Win32,60,,,0,24,24,24,1,,
,,0.10546875,0.024739583,1,0,0,0.88311,probe5,"[0.1,0]",,,,,,26,probe3,0.05,0.05,0.1,-0.1,#e69f00,#e69f00,,-0.2,0,#56b4e9,#56b4e9,,-0.1,-0.2,#009e73,#d55e00,,-0.2,-0.1,#4A4A4A,#4A4A4A,,0.1,0,#cc79a7,#cc79a7,,A1TGZ063G5UKEC,001,2020-12-11_18h57.20.306,change-localization,2020.1.2,Win32,60,,,0,25,25,25,1,,
,,-0.194010417,-0.10546875,1,0,0,0.666415,probe5,"[-0.2,-0.1]",,,,,,27,probe5,0.05,0.05,-0.1,-0.2,#009e73,#009e73,,0.2,0,#cc79a7,#cc79a7,,-0.1,-0.1,#e69f00,#e69f00,,0.1,0.1,#d55e00,#d55e00,,-0.2,-0.1,#4A4A4A,#0072b2,,A1TGZ063G5UKEC,001,2020-12-11_18h57.20.306,change-localization,2020.1.2,Win32,60,,,0,26,26,26,1,,
,,-0.01171875,-0.19921875,1,0,0,1.218905,probe3,"[0,-0.2]",,,,,,28,probe5,0.05,0.05,-0.1,0.2,#009e73,#009e73,,-0.2,0.1,#56b4e9,#56b4e9,,0,-0.2,#d55e00,#d55e00,,0.1,0,#0072b2,#0072b2,,0.1,0.1,#f0e442,#e69f00,,A1TGZ063G5UKEC,001,2020-12-11_18h57.20.306,change-localization,2020.1.2,Win32,60,,,0,27,27,27,1,,
,,0.075520833,-0.115885417,1,0,0,1.03348,probe1,"[0.1,-0.1]",,,,,,29,probe1,0.05,0.05,0.1,-0.1,#4A4A4A,#56b4e9,,-0.2,0.2,#e69f00,#e69f00,,-0.1,-0.1,#f0e442,#f0e442,,0.1,0.2,#0072b2,#0072b2,,-0.1,-0.2,#cc79a7,#cc79a7,,A1TGZ063G5UKEC,001,2020-12-11_18h57.20.306,change-localization,2020.1.2,Win32,60,,,0,28,28,28,1,,
,,-0.196614583,0.009114583,1,0,0,0.91664,probe5,"[-0.2,0]",,,,,,30,probe2,0.05,0.05,0.1,0.2,#f0e442,#f0e442,,-0.1,-0.2,#d55e00,#4A4A4A,,0,-0.2,#cc79a7,#cc79a7,,0.1,-0.2,#0072b2,#0072b2,,-0.2,0,#009e73,#009e73,,A1TGZ063G5UKEC,001,2020-12-11_18h57.20.306,change-localization,2020.1.2,Win32,60,,,0,29,29,29,1,,
,,-0.208333333,-0.095052083,1,0,0,0.73327,probe4,"[-0.2,-0.1]",,,,,,31,probe5,0.05,0.05,0,-0.2,#d55e00,#d55e00,,0.1,0,#e69f00,#e69f00,,0.1,0.2,#f0e442,#f0e442,,-0.2,-0.1,#cc79a7,#cc79a7,,-0.1,-0.1,#009e73,#4A4A4A,,A1TGZ063G5UKEC,001,2020-12-11_18h57.20.306,change-localization,2020.1.2,Win32,60,,,0,30,30,30,1,,
,,0.20703125,0.104166667,1,0,0,0.849625,probe3,"[0.2,0.1]",,,,,,32,probe3,0.05,0.05,0.2,0.2,#56b4e9,#56b4e9,,-0.1,-0.1,#009e73,#009e73,,0.2,0.1,#cc79a7,#0072b2,,-0.2,0.1,#4A4A4A,#4A4A4A,,-0.2,-0.1,#f0e442,#f0e442,,A1TGZ063G5UKEC,001,2020-12-11_18h57.20.306,change-localization,2020.1.2,Win32,60,,,0,31,31,31,1,,
,,-0.098958333,-0.08984375,1,0,0,0.802445,probe1,"[-0.1,-0.1]",,,,,,33,probe3,0.05,0.05,-0.1,-0.1,#0072b2,#0072b2,,0.1,0.1,#cc79a7,#cc79a7,,-0.1,0.1,#f0e442,#009e73,,0,-0.2,#56b4e9,#56b4e9,,0.1,0.2,#e69f00,#e69f00,,A1TGZ063G5UKEC,001,2020-12-11_18h57.20.306,change-localization,2020.1.2,Win32,60,,,0,32,32,32,1,,
,,-0.203125,-0.015625,1,0,0,0.716725,probe5,"[-0.2,0]",,,,,,34,probe5,0.05,0.05,0.2,0.1,#e69f00,#e69f00,,-0.2,0.1,#cc79a7,#cc79a7,,0.1,-0.2,#0072b2,#0072b2,,0.2,-0.2,#d55e00,#d55e00,,-0.2,0,#56b4e9,#009e73,,A1TGZ063G5UKEC,001,2020-12-11_18h57.20.306,change-localization,2020.1.2,Win32,60,,,0,33,33,33,1,,
,,0.19140625,0,1,0,0,0.566535,probe1,"[0.2,0]",,,,,,35,probe2,0.05,0.05,0.2,0,#56b4e9,#56b4e9,,0.2,-0.1,#e69f00,#009e73,,0.1,-0.1,#f0e442,#f0e442,,0,0.2,#d55e00,#d55e00,,0.1,0.2,#cc79a7,#cc79a7,,A1TGZ063G5UKEC,001,2020-12-11_18h57.20.306,change-localization,2020.1.2,Win32,60,,,0,34,34,34,1,,
,,-0.013020833,0.087239583,1,0,0,0.78315,probe1,"[0,0.1]",,,,,,36,probe3,0.05,0.05,0,0.1,#4A4A4A,#4A4A4A,,0.2,0.1,#009e73,#009e73,,-0.2,-0.1,#f0e442,#56b4e9,,-0.1,-0.1,#e69f00,#e69f00,,0.1,0,#0072b2,#0072b2,,A1TGZ063G5UKEC,001,2020-12-11_18h57.20.306,change-localization,2020.1.2,Win32,60,,,0,35,35,35,1,,
,,-0.104166667,0.186197917,1,0,0,0.93331,probe4,"[-0.1,0.2]",,,,,,37,probe5,0.05,0.05,-0.2,0.1,#e69f00,#e69f00,,0.1,0.1,#0072b2,#0072b2,,-0.2,0,#d55e00,#d55e00,,-0.1,0.2,#cc79a7,#cc79a7,,0.1,0,#009e73,#f0e442,,A1TGZ063G5UKEC,001,2020-12-11_18h57.20.306,change-localization,2020.1.2,Win32,60,,,0,36,36,36,1,,
,,0.102864583,0.001302083,1,0,0,0.58327,probe4,"[0.1,0]",,,,,,38,probe4,0.05,0.05,0.2,-0.2,#4A4A4A,#4A4A4A,,0.2,0,#0072b2,#0072b2,,0.1,-0.1,#e69f00,#e69f00,,0.1,0,#d55e00,#cc79a7,,0,-0.1,#009e73,#009e73,,A1TGZ063G5UKEC,001,2020-12-11_18h57.20.306,change-localization,2020.1.2,Win32,60,,,0,37,37,37,1,,
,,-0.19921875,0.223958333,1,0,0,0.633215,probe4,"[-0.2,0.2]",,,,,,39,probe4,0.05,0.05,0.1,-0.1,#e69f00,#e69f00,,-0.2,-0.1,#cc79a7,#cc79a7,,0.2,0.1,#d55e00,#d55e00,,-0.2,0.2,#56b4e9,#f0e442,,0,-0.1,#0072b2,#0072b2,,A1TGZ063G5UKEC,001,2020-12-11_18h57.20.306,change-localization,2020.1.2,Win32,60,,,0,38,38,38,1,,
,,-0.213541667,0.096354167,1,0,0,0.58353,probe1,"[-0.2,0.1]",,,,,,40,probe1,0.05,0.05,-0.2,0.1,#4A4A4A,#d55e00,,0.2,0.2,#009e73,#009e73,,-0.1,-0.1,#cc79a7,#cc79a7,,0.2,-0.2,#e69f00,#e69f00,,0.1,-0.1,#56b4e9,#56b4e9,,A1TGZ063G5UKEC,001,2020-12-11_18h57.20.306,change-localization,2020.1.2,Win32,60,,,0,39,39,39,1,,
,,-0.09375,0.02734375,1,0,0,0.61671,probe4,"[-0.1,0]",,,,,,41,probe4,0.05,0.05,0.2,0.1,#009e73,#009e73,,-0.2,-0.1,#0072b2,#0072b2,,-0.2,-0.2,#56b4e9,#56b4e9,,-0.1,0,#f0e442,#cc79a7,,0,-0.2,#d55e00,#d55e00,,A1TGZ063G5UKEC,001,2020-12-11_18h57.20.306,change-localization,2020.1.2,Win32,60,,,0,40,40,40,1,,
,,0.096354167,0.1171875,1,0,0,0.732965,probe3,"[0.1,0.1]",,,,,,42,probe4,0.05,0.05,-0.1,-0.2,#009e73,#009e73,,-0.1,0.1,#cc79a7,#cc79a7,,0.1,0.1,#56b4e9,#56b4e9,,0,-0.2,#e69f00,#d55e00,,-0.1,0,#0072b2,#0072b2,,A1TGZ063G5UKEC,001,2020-12-11_18h57.20.306,change-localization,2020.1.2,Win32,60,,,0,41,41,41,1,,
,,0.227864583,-0.177083333,1,0,0,0.649525,probe4,"[0.2,-0.2]",,,,,,43,probe1,0.05,0.05,0.2,-0.1,#e69f00,#009e73,,0.1,0,#cc79a7,#cc79a7,,-0.2,-0.2,#f0e442,#f0e442,,0.2,-0.2,#56b4e9,#56b4e9,,-0.2,0.1,#4A4A4A,#4A4A4A,,A1TGZ063G5UKEC,001,2020-12-11_18h57.20.306,change-localization,2020.1.2,Win32,60,,,0,42,42,42,1,,
,,-0.100260417,0.194010417,1,0,0,0.533095,probe1,"[-0.1,0.2]",,,,,,44,probe1,0.05,0.05,-0.1,0.2,#56b4e9,#e69f00,,0.2,0.1,#4A4A4A,#4A4A4A,,0.1,0,#cc79a7,#cc79a7,,0.1,0.2,#f0e442,#f0e442,,-0.1,-0.1,#d55e00,#d55e00,,A1TGZ063G5UKEC,001,2020-12-11_18h57.20.306,change-localization,2020.1.2,Win32,60,,,0,43,43,43,1,,
,,-0.00390625,-0.192708333,1,0,0,0.99972,probe5,"[0,-0.2]",,,,,,45,probe3,0.05,0.05,-0.2,0.2,#0072b2,#0072b2,,-0.2,-0.1,#56b4e9,#56b4e9,,-0.1,0.1,#f0e442,#e69f00,,-0.1,0.2,#d55e00,#d55e00,,0,-0.2,#cc79a7,#cc79a7,,A1TGZ063G5UKEC,001,2020-12-11_18h57.20.306,change-localization,2020.1.2,Win32,60,,,0,44,44,44,1,,
,,0.204427083,0.102864583,1,0,0,0.600045,probe1,"[0.2,0.1]",,,,,,46,probe5,0.05,0.05,0.2,0.1,#0072b2,#0072b2,,0.1,0.2,#f0e442,#f0e442,,0.2,-0.2,#009e73,#009e73,,0.2,0.2,#4A4A4A,#4A4A4A,,0.2,0,#cc79a7,#e69f00,,A1TGZ063G5UKEC,001,2020-12-11_18h57.20.306,change-localization,2020.1.2,Win32,60,,,0,45,45,45,1,,
,,0.177083333,0.205729167,1,0,0,0.633195,probe3,"[0.2,0.2]",,,,,,47,probe3,0.05,0.05,0,-0.1,#009e73,#009e73,,-0.2,0.2,#f0e442,#f0e442,,0.2,0.2,#56b4e9,#cc79a7,,-0.1,0.2,#4A4A4A,#4A4A4A,,-0.1,0.1,#e69f00,#e69f00,,A1TGZ063G5UKEC,001,2020-12-11_18h57.20.306,change-localization,2020.1.2,Win32,60,,,0,46,46,46,1,,
,,-0.114583333,0.005208333,1,0,0,1.09965,probe5,"[-0.1,0]",,,,,,48,probe4,0.05,0.05,0.2,-0.2,#cc79a7,#cc79a7,,-0.1,0.1,#009e73,#009e73,,0.1,-0.2,#f0e442,#f0e442,,-0.2,-0.1,#d55e00,#0072b2,,-0.1,0,#56b4e9,#56b4e9,,A1TGZ063G5UKEC,001,2020-12-11_18h57.20.306,change-localization,2020.1.2,Win32,60,,,0,47,47,47,1,,
,,0.12109375,0.186197917,1,0,0,1.000335,probe4,"[0.1,0.2]",,,,,,49,probe2,0.05,0.05,0,-0.2,#e69f00,#e69f00,,-0.2,0,#cc79a7,#0072b2,,-0.1,0.2,#f0e442,#f0e442,,0.1,0.2,#4A4A4A,#4A4A4A,,-0.1,-0.1,#56b4e9,#56b4e9,,A1TGZ063G5UKEC,001,2020-12-11_18h57.20.306,change-localization,2020.1.2,Win32,60,,,0,48,48,48,1,,
,,-0.08203125,0.02734375,1,0,0,0.6669,probe4,"[-0.1,0]",,,,,,50,probe4,0.05,0.05,0.2,0.1,#0072b2,#0072b2,,0.1,0.1,#cc79a7,#cc79a7,,0.1,-0.2,#56b4e9,#56b4e9,,-0.1,0,#009e73,#e69f00,,0,0.1,#d55e00,#d55e00,,A1TGZ063G5UKEC,001,2020-12-11_18h57.20.306,change-localization,2020.1.2,Win32,60,,,0,49,49,49,1,,
,,,,,,,,,,,,,,,,,,,,,,,,,,,,,,,,,,,,,,,,,,,,A1TGZ063G5UKEC,001,2020-12-11_18h57.20.306,change-localization,2020.1.2,Win32,60,,,,,,,,c,4.716165
