key_resp.keys,key_resp.rt,mouse.x,mouse.y,mouse.leftButton,mouse.midButton,mouse.rightButton,mouse.time,mouse.clicked_name,mouse.clicked_pos,training.thisRepN,training.thisTrialN,training.thisN,training.thisIndex,training.ran,trial,answer,height,width,x1,y1,stim_color1,probe_color1,copy_color1,x2,y2,stim_color2,probe_color2,copy_color2,x3,y3,stim_color3,probe_color3,copy_color3,x4,y4,stim_color4,probe_color4,copy_color4,x5,y5,stim_color5,probe_color5,copy_color5,participant,session,date,expName,psychopyVersion,OS,frameRate,key_resp_2.keys,key_resp_2.rt,trials.thisRepN,trials.thisTrialN,trials.thisN,trials.thisIndex,trials.ran,completion_keys.keys,completion_keys.rt
c,2.403,0.11,-0.07625,1,0,0,4.399,probe2,"[0.1,-0.1]",0,0,0,0,1,1,probe4,0.05,0.05,0.1,0.2,#0072b2,#0072b2,#0072b2,0.1,-0.1,#e69f00,#e69f00,#e69f00,-0.1,-0.2,#cc79a7,#cc79a7,#cc79a7,0.2,-0.1,#4A4A4A,#f0e442,#FFFFFF,0.2,0,#009e73,#009e73,#009e73,A211KGJ94WNFLN,001,2020-12-11_17h26.12.833,change-localization,2020.1.2,Win32,60,,,,,,,,,
,,0.1925,-0.0925,1,0,0,15.654,probe2,"[0.2,-0.1]",0,1,1,1,1,2,probe1,0.05,0.05,0.2,0,#d55e00,#009e73,#FFFFFF,0.2,-0.1,#e69f00,#e69f00,#e69f00,0.1,0,#4A4A4A,#4A4A4A,#4A4A4A,-0.1,0.1,#56b4e9,#56b4e9,#56b4e9,-0.1,0,#cc79a7,#cc79a7,#cc79a7,A211KGJ94WNFLN,001,2020-12-11_17h26.12.833,change-localization,2020.1.2,Win32,60,,,,,,,,,
,,0.19125,-0.09125,1,0,0,3.796,probe2,"[0.2,-0.1]",0,2,2,2,1,3,probe1,0.05,0.05,-0.2,-0.2,#f0e442,#009e73,#FFFFFF,0.2,-0.1,#d55e00,#d55e00,#d55e00,-0.2,0,#4A4A4A,#4A4A4A,#4A4A4A,-0.1,-0.1,#0072b2,#0072b2,#0072b2,0,-0.1,#56b4e9,#56b4e9,#56b4e9,A211KGJ94WNFLN,001,2020-12-11_17h26.12.833,change-localization,2020.1.2,Win32,60,,,,,,,,,
,,-0.17125,0.00125,1,0,0,0.911,probe4,"[-0.2,0]",0,3,3,3,1,4,probe1,0.05,0.05,0.2,0.2,#d55e00,#56b4e9,#FFFFFF,-0.2,0.2,#f0e442,#f0e442,#f0e442,0.2,-0.2,#0072b2,#0072b2,#0072b2,-0.2,0,#cc79a7,#cc79a7,#cc79a7,-0.2,0.1,#4A4A4A,#4A4A4A,#4A4A4A,A211KGJ94WNFLN,001,2020-12-11_17h26.12.833,change-localization,2020.1.2,Win32,60,,,,,,,,,
,,0,0.06875,1,0,0,4.576,probe3,"[0,0.1]",0,4,4,4,1,5,probe3,0.05,0.05,-0.2,0.1,#56b4e9,#56b4e9,#56b4e9,0,0.2,#009e73,#009e73,#009e73,0,0.1,#0072b2,#cc79a7,#FFFFFF,-0.1,-0.1,#4A4A4A,#4A4A4A,#4A4A4A,0.2,0,#f0e442,#f0e442,#f0e442,A211KGJ94WNFLN,001,2020-12-11_17h26.12.833,change-localization,2020.1.2,Win32,60,,,,,,,,,
,,0.0025,0.08375,1,0,0,3.71,probe2,"[0,0.1]",0,5,5,5,1,6,probe5,0.05,0.05,-0.1,0.1,#f0e442,#f0e442,#f0e442,0,0.1,#009e73,#009e73,#009e73,-0.2,0,#4A4A4A,#4A4A4A,#4A4A4A,0,-0.2,#d55e00,#d55e00,#d55e00,0.1,0,#cc79a7,#0072b2,#FFFFFF,A211KGJ94WNFLN,001,2020-12-11_17h26.12.833,change-localization,2020.1.2,Win32,60,,,,,,,,,
,,0.1075,0.2275,1,0,0,5.833,probe2,"[0.1,0.2]",0,6,6,6,1,7,probe2,0.05,0.05,-0.2,-0.2,#4A4A4A,#4A4A4A,#4A4A4A,0.1,0.2,#0072b2,#d55e00,#FFFFFF,-0.1,-0.2,#f0e442,#f0e442,#f0e442,-0.2,0.2,#009e73,#009e73,#009e73,0.2,0.2,#e69f00,#e69f00,#e69f00,A211KGJ94WNFLN,001,2020-12-11_17h26.12.833,change-localization,2020.1.2,Win32,60,,,,,,,,,
,,-0.15,0.0925,1,0,0,1.709,probe3,"[-0.1,0.1]",0,7,7,7,1,8,probe1,0.05,0.05,0.1,-0.2,#009e73,#f0e442,#FFFFFF,-0.1,0,#d55e00,#d55e00,#d55e00,-0.1,0.1,#4A4A4A,#4A4A4A,#4A4A4A,-0.2,0,#cc79a7,#cc79a7,#cc79a7,0.2,0,#e69f00,#e69f00,#e69f00,A211KGJ94WNFLN,001,2020-12-11_17h26.12.833,change-localization,2020.1.2,Win32,60,,,,,,,,,
,,-0.10625,0.17375,1,0,0,3.868,probe2,"[-0.1,0.2]",0,8,8,8,1,9,probe1,0.05,0.05,0.1,-0.2,#0072b2,#e69f00,#FFFFFF,-0.1,0.2,#f0e442,#f0e442,#f0e442,-0.2,0.1,#d55e00,#d55e00,#d55e00,0.2,0.2,#cc79a7,#cc79a7,#cc79a7,0.1,0.1,#56b4e9,#56b4e9,#56b4e9,A211KGJ94WNFLN,001,2020-12-11_17h26.12.833,change-localization,2020.1.2,Win32,60,,,,,,,,,
,,-0.0875,-0.08125,1,0,0,5.417,probe1,"[-0.1,-0.1]",0,9,9,9,1,10,probe1,0.05,0.05,-0.1,-0.1,#4A4A4A,#f0e442,#FFFFFF,0,0.2,#cc79a7,#cc79a7,#cc79a7,0.2,-0.2,#e69f00,#e69f00,#e69f00,0.1,-0.2,#009e73,#009e73,#009e73,0.1,0.1,#d55e00,#d55e00,#d55e00,A211KGJ94WNFLN,001,2020-12-11_17h26.12.833,change-localization,2020.1.2,Win32,60,,,,,,,,,
,,-0.085,0.01625,1,0,0,11.43,probe3,"[-0.1,0]",,,,,,1,probe2,0.05,0.05,-0.2,0.2,#009e73,#009e73,,-0.1,0.2,#f0e442,#e69f00,,-0.1,0,#0072b2,#0072b2,,0,-0.2,#cc79a7,#cc79a7,,0,0.2,#d55e00,#d55e00,,A211KGJ94WNFLN,001,2020-12-11_17h26.12.833,change-localization,2020.1.2,Win32,60,c,5.707,0,0,0,0,1,,
,,-0.08125,-0.11375,1,0,0,5.923,probe3,"[-0.1,-0.1]",,,,,,2,probe5,0.05,0.05,0,0.1,#009e73,#009e73,,0.2,0.1,#4A4A4A,#4A4A4A,,-0.1,-0.1,#cc79a7,#cc79a7,,0.1,0.1,#d55e00,#d55e00,,0,-0.1,#56b4e9,#e69f00,,A211KGJ94WNFLN,001,2020-12-11_17h26.12.833,change-localization,2020.1.2,Win32,60,,,0,1,1,1,1,,
,,0.09125,-0.1025,1,0,0,1.092,probe1,"[0.1,-0.1]",,,,,,3,probe4,0.05,0.05,0.1,-0.1,#56b4e9,#56b4e9,,0.2,0,#f0e442,#f0e442,,0.2,-0.1,#e69f00,#e69f00,,-0.1,0.1,#4A4A4A,#009e73,,-0.1,0.2,#d55e00,#d55e00,,A211KGJ94WNFLN,001,2020-12-11_17h26.12.833,change-localization,2020.1.2,Win32,60,,,0,2,2,2,1,,
,,0.18875,-0.00625,1,0,0,2.412,probe1,"[0.2,0]",,,,,,4,probe5,0.05,0.05,0.2,0,#56b4e9,#56b4e9,,-0.2,-0.2,#cc79a7,#cc79a7,,0,0.2,#4A4A4A,#4A4A4A,,0.2,-0.2,#e69f00,#e69f00,,-0.2,0,#f0e442,#009e73,,A211KGJ94WNFLN,001,2020-12-11_17h26.12.833,change-localization,2020.1.2,Win32,60,,,0,3,3,3,1,,
,,0.18875,-0.00625,1,0,0,1.316,probe4,"[0.2,0]",,,,,,5,probe3,0.05,0.05,-0.2,0.1,#4A4A4A,#4A4A4A,,0.2,0.2,#009e73,#009e73,,-0.1,-0.1,#0072b2,#f0e442,,0.2,0,#cc79a7,#cc79a7,,0.1,0.1,#e69f00,#e69f00,,A211KGJ94WNFLN,001,2020-12-11_17h26.12.833,change-localization,2020.1.2,Win32,60,,,0,4,4,4,1,,
,,-0.01625,-0.08,1,0,0,21.607,probe3,"[0,-0.1]",,,,,,6,probe4,0.05,0.05,-0.1,0.1,#d55e00,#d55e00,,-0.2,0.2,#0072b2,#0072b2,,0,-0.1,#e69f00,#e69f00,,0,0.2,#56b4e9,#4A4A4A,,-0.2,-0.2,#009e73,#009e73,,A211KGJ94WNFLN,001,2020-12-11_17h26.12.833,change-localization,2020.1.2,Win32,60,,,0,5,5,5,1,,
,,-0.07375,-0.09625,1,0,0,5.429,probe2,"[-0.1,-0.1]",,,,,,7,probe4,0.05,0.05,0.2,-0.1,#56b4e9,#56b4e9,,-0.1,-0.1,#e69f00,#e69f00,,-0.2,0.2,#009e73,#009e73,,0.2,0.2,#cc79a7,#4A4A4A,,0.2,-0.2,#d55e00,#d55e00,,A211KGJ94WNFLN,001,2020-12-11_17h26.12.833,change-localization,2020.1.2,Win32,60,,,0,6,6,6,1,,
,,-0.18625,0.11,1,0,0,16.72,probe1,"[-0.2,0.1]",,,,,,8,probe4,0.05,0.05,-0.2,0.1,#e69f00,#e69f00,,0.1,0.2,#cc79a7,#cc79a7,,0.2,0.1,#4A4A4A,#4A4A4A,,-0.2,0.2,#56b4e9,#d55e00,,0.2,-0.1,#0072b2,#0072b2,,A211KGJ94WNFLN,001,2020-12-11_17h26.12.833,change-localization,2020.1.2,Win32,60,,,0,7,7,7,1,,
,,0.11,0.08375,1,0,0,1.852,probe2,"[0.1,0.1]",,,,,,9,probe5,0.05,0.05,-0.1,0,#4A4A4A,#4A4A4A,,0.1,0.1,#56b4e9,#56b4e9,,-0.2,0.1,#009e73,#009e73,,0.2,0.1,#cc79a7,#cc79a7,,0.2,0.2,#d55e00,#f0e442,,A211KGJ94WNFLN,001,2020-12-11_17h26.12.833,change-localization,2020.1.2,Win32,60,,,0,8,8,8,1,,
,,-0.01125,0.11,1,0,0,4.224,probe3,"[0,0.1]",,,,,,10,probe3,0.05,0.05,0.2,0.2,#f0e442,#f0e442,,0.1,-0.1,#e69f00,#e69f00,,0,0.1,#cc79a7,#4A4A4A,,-0.2,0.1,#56b4e9,#56b4e9,,0.2,0,#0072b2,#0072b2,,A211KGJ94WNFLN,001,2020-12-11_17h26.12.833,change-localization,2020.1.2,Win32,60,,,0,9,9,9,1,,
,,0.14,0.19875,1,0,0,18.428,probe2,"[0.1,0.2]",,,,,,11,probe5,0.05,0.05,0.2,0.2,#4A4A4A,#4A4A4A,,0.1,0.2,#0072b2,#0072b2,,0.1,-0.1,#cc79a7,#cc79a7,,0,-0.2,#009e73,#009e73,,0.1,-0.2,#f0e442,#d55e00,,A211KGJ94WNFLN,001,2020-12-11_17h26.12.833,change-localization,2020.1.2,Win32,60,,,0,10,10,10,1,,
,,-0.08875,0.005,1,0,0,26.287,probe2,"[-0.1,0]",,,,,,12,probe4,0.05,0.05,-0.1,-0.1,#009e73,#009e73,,-0.1,0,#56b4e9,#56b4e9,,-0.1,-0.2,#0072b2,#0072b2,,0.1,0,#d55e00,#f0e442,,0,-0.1,#cc79a7,#cc79a7,,A211KGJ94WNFLN,001,2020-12-11_17h26.12.833,change-localization,2020.1.2,Win32,60,,,0,11,11,11,1,,
,,-0.2,0.19625,1,0,0,1.083,probe4,"[-0.2,0.2]",,,,,,13,probe4,0.05,0.05,0,-0.1,#f0e442,#f0e442,,0.1,-0.1,#d55e00,#d55e00,,0.1,0.1,#0072b2,#0072b2,,-0.2,0.2,#cc79a7,#4A4A4A,,0.1,0.2,#009e73,#009e73,,A211KGJ94WNFLN,001,2020-12-11_17h26.12.833,change-localization,2020.1.2,Win32,60,,,0,12,12,12,1,,
,,-0.19875,-0.00375,1,0,0,1.512,probe3,"[-0.2,0]",,,,,,14,probe5,0.05,0.05,0,0.2,#cc79a7,#cc79a7,,0,-0.1,#4A4A4A,#4A4A4A,,-0.2,0,#56b4e9,#56b4e9,,0.1,0.1,#0072b2,#0072b2,,0.1,0.2,#009e73,#e69f00,,A211KGJ94WNFLN,001,2020-12-11_17h26.12.833,change-localization,2020.1.2,Win32,60,,,0,13,13,13,1,,
,,0.0975,-0.1125,1,0,0,3.484,probe4,"[0.1,-0.1]",,,,,,15,probe3,0.05,0.05,0.2,0.2,#cc79a7,#cc79a7,,0,0.2,#56b4e9,#56b4e9,,0.2,0.1,#d55e00,#4A4A4A,,0.1,-0.1,#f0e442,#f0e442,,0.2,-0.1,#0072b2,#0072b2,,A211KGJ94WNFLN,001,2020-12-11_17h26.12.833,change-localization,2020.1.2,Win32,60,,,0,14,14,14,1,,
,,-0.18125,0.11,1,0,0,10.237,probe4,"[-0.2,0.1]",,,,,,16,probe3,0.05,0.05,-0.2,-0.1,#f0e442,#f0e442,,-0.2,0.2,#d55e00,#d55e00,,0.1,0.1,#009e73,#4A4A4A,,-0.2,0.1,#56b4e9,#56b4e9,,0,-0.1,#cc79a7,#cc79a7,,A211KGJ94WNFLN,001,2020-12-11_17h26.12.833,change-localization,2020.1.2,Win32,60,,,0,15,15,15,1,,
,,-0.2075,-0.11375,1,0,0,4.637,probe4,"[-0.2,-0.1]",,,,,,17,probe3,0.05,0.05,0.2,-0.1,#cc79a7,#cc79a7,,0,-0.2,#0072b2,#0072b2,,0,0.1,#4A4A4A,#e69f00,,-0.2,-0.1,#f0e442,#f0e442,,-0.1,-0.1,#009e73,#009e73,,A211KGJ94WNFLN,001,2020-12-11_17h26.12.833,change-localization,2020.1.2,Win32,60,,,0,16,16,16,1,,
,,-0.07625,0.125,1,0,0,2.793,probe1,"[-0.1,0.1]",,,,,,18,probe3,0.05,0.05,-0.1,0.1,#d55e00,#d55e00,,-0.1,0.2,#e69f00,#e69f00,,0.2,0,#009e73,#0072b2,,0.1,-0.1,#cc79a7,#cc79a7,,-0.2,0.2,#4A4A4A,#4A4A4A,,A211KGJ94WNFLN,001,2020-12-11_17h26.12.833,change-localization,2020.1.2,Win32,60,,,0,17,17,17,1,,
,,-0.09125,0.1,1,0,0,1.733,probe3,"[-0.1,0.1]",,,,,,19,probe3,0.05,0.05,-0.1,0.2,#0072b2,#0072b2,,0,-0.1,#4A4A4A,#4A4A4A,,-0.1,0.1,#e69f00,#009e73,,0.2,0.1,#d55e00,#d55e00,,-0.2,0.1,#cc79a7,#cc79a7,,A211KGJ94WNFLN,001,2020-12-11_17h26.12.833,change-localization,2020.1.2,Win32,60,,,0,18,18,18,1,,
,,-0.08625,-0.00375,1,0,0,9.7,probe5,"[-0.1,0]",,,,,,20,probe4,0.05,0.05,0.2,0,#56b4e9,#56b4e9,,-0.1,0.2,#009e73,#009e73,,-0.2,-0.2,#e69f00,#e69f00,,0,-0.1,#f0e442,#cc79a7,,-0.1,0,#4A4A4A,#4A4A4A,,A211KGJ94WNFLN,001,2020-12-11_17h26.12.833,change-localization,2020.1.2,Win32,60,,,0,19,19,19,1,,
,,-0.11625,0.105,1,0,0,11.442,probe1,"[-0.1,0.1]",,,,,,21,probe3,0.05,0.05,-0.1,0.1,#0072b2,#0072b2,,-0.1,0.2,#009e73,#009e73,,0.2,0,#56b4e9,#4A4A4A,,-0.2,0.2,#f0e442,#f0e442,,0.2,0.1,#d55e00,#d55e00,,A211KGJ94WNFLN,001,2020-12-11_17h26.12.833,change-localization,2020.1.2,Win32,60,,,0,20,20,20,1,,
,,0.2,0.00625,1,0,0,10.088,probe2,"[0.2,0]",,,,,,22,probe4,0.05,0.05,0.2,-0.1,#d55e00,#d55e00,,0.2,0,#56b4e9,#56b4e9,,0.1,-0.2,#cc79a7,#cc79a7,,-0.2,-0.1,#4A4A4A,#009e73,,0,-0.2,#e69f00,#e69f00,,A211KGJ94WNFLN,001,2020-12-11_17h26.12.833,change-localization,2020.1.2,Win32,60,,,0,21,21,21,1,,
,,0.10375,0.09,1,0,0,6.784,probe1,"[0.1,0.1]",,,,,,23,probe4,0.05,0.05,0.1,0.1,#56b4e9,#56b4e9,,-0.2,-0.1,#0072b2,#0072b2,,0.2,0,#d55e00,#d55e00,,-0.2,-0.2,#cc79a7,#009e73,,0.1,-0.2,#4A4A4A,#4A4A4A,,A211KGJ94WNFLN,001,2020-12-11_17h26.12.833,change-localization,2020.1.2,Win32,60,,,0,22,22,22,1,,
,,0.10375,0.09,1,0,0,9.28,probe4,"[0.1,0.1]",,,,,,24,probe2,0.05,0.05,-0.1,-0.2,#4A4A4A,#4A4A4A,,0.2,0.2,#d55e00,#e69f00,,0.1,-0.1,#f0e442,#f0e442,,0.1,0.1,#56b4e9,#56b4e9,,-0.2,0.1,#cc79a7,#cc79a7,,A211KGJ94WNFLN,001,2020-12-11_17h26.12.833,change-localization,2020.1.2,Win32,60,,,0,23,23,23,1,,
,,0.20625,0.00375,1,0,0,7.743,probe3,"[0.2,0]",,,,,,25,probe3,0.05,0.05,-0.2,-0.2,#f0e442,#f0e442,,-0.1,-0.1,#4A4A4A,#4A4A4A,,0.2,0,#d55e00,#cc79a7,,0,0.2,#0072b2,#0072b2,,-0.2,0.1,#009e73,#009e73,,A211KGJ94WNFLN,001,2020-12-11_17h26.12.833,change-localization,2020.1.2,Win32,60,,,0,24,24,24,1,,
,,0.1075,-0.01,1,0,0,2.524,probe5,"[0.1,0]",,,,,,26,probe3,0.05,0.05,0.1,-0.1,#e69f00,#e69f00,,-0.2,0,#56b4e9,#56b4e9,,-0.1,-0.2,#009e73,#d55e00,,-0.2,-0.1,#4A4A4A,#4A4A4A,,0.1,0,#cc79a7,#cc79a7,,A211KGJ94WNFLN,001,2020-12-11_17h26.12.833,change-localization,2020.1.2,Win32,60,,,0,25,25,25,1,,
,,0.18625,0.00625,1,0,0,8.908,probe2,"[0.2,0]",,,,,,27,probe5,0.05,0.05,-0.1,-0.2,#009e73,#009e73,,0.2,0,#cc79a7,#cc79a7,,-0.1,-0.1,#e69f00,#e69f00,,0.1,0.1,#d55e00,#d55e00,,-0.2,-0.1,#4A4A4A,#0072b2,,A211KGJ94WNFLN,001,2020-12-11_17h26.12.833,change-localization,2020.1.2,Win32,60,,,0,26,26,26,1,,
,,0.0975,0.115,1,0,0,2.177,probe5,"[0.1,0.1]",,,,,,28,probe5,0.05,0.05,-0.1,0.2,#009e73,#009e73,,-0.2,0.1,#56b4e9,#56b4e9,,0,-0.2,#d55e00,#d55e00,,0.1,0,#0072b2,#0072b2,,0.1,0.1,#f0e442,#e69f00,,A211KGJ94WNFLN,001,2020-12-11_17h26.12.833,change-localization,2020.1.2,Win32,60,,,0,27,27,27,1,,
,,0.1075,0.18875,1,0,0,5.908,probe4,"[0.1,0.2]",,,,,,29,probe1,0.05,0.05,0.1,-0.1,#4A4A4A,#56b4e9,,-0.2,0.2,#e69f00,#e69f00,,-0.1,-0.1,#f0e442,#f0e442,,0.1,0.2,#0072b2,#0072b2,,-0.1,-0.2,#cc79a7,#cc79a7,,A211KGJ94WNFLN,001,2020-12-11_17h26.12.833,change-localization,2020.1.2,Win32,60,,,0,28,28,28,1,,
,,0.1075,0.19,1,0,0,5.792,probe1,"[0.1,0.2]",,,,,,30,probe2,0.05,0.05,0.1,0.2,#f0e442,#f0e442,,-0.1,-0.2,#d55e00,#4A4A4A,,0,-0.2,#cc79a7,#cc79a7,,0.1,-0.2,#0072b2,#0072b2,,-0.2,0,#009e73,#009e73,,A211KGJ94WNFLN,001,2020-12-11_17h26.12.833,change-localization,2020.1.2,Win32,60,,,0,29,29,29,1,,
,,0.1075,0.19,1,0,0,2.213,probe3,"[0.1,0.2]",,,,,,31,probe5,0.05,0.05,0,-0.2,#d55e00,#d55e00,,0.1,0,#e69f00,#e69f00,,0.1,0.2,#f0e442,#f0e442,,-0.2,-0.1,#cc79a7,#cc79a7,,-0.1,-0.1,#009e73,#4A4A4A,,A211KGJ94WNFLN,001,2020-12-11_17h26.12.833,change-localization,2020.1.2,Win32,60,,,0,30,30,30,1,,
,,0.175,0.1925,1,0,0,3.282,probe1,"[0.2,0.2]",,,,,,32,probe3,0.05,0.05,0.2,0.2,#56b4e9,#56b4e9,,-0.1,-0.1,#009e73,#009e73,,0.2,0.1,#cc79a7,#0072b2,,-0.2,0.1,#4A4A4A,#4A4A4A,,-0.2,-0.1,#f0e442,#f0e442,,A211KGJ94WNFLN,001,2020-12-11_17h26.12.833,change-localization,2020.1.2,Win32,60,,,0,31,31,31,1,,
,,0.09875,0.2,1,0,0,13.998,probe5,"[0.1,0.2]",,,,,,33,probe3,0.05,0.05,-0.1,-0.1,#0072b2,#0072b2,,0.1,0.1,#cc79a7,#cc79a7,,-0.1,0.1,#f0e442,#009e73,,0,-0.2,#56b4e9,#56b4e9,,0.1,0.2,#e69f00,#e69f00,,A211KGJ94WNFLN,001,2020-12-11_17h26.12.833,change-localization,2020.1.2,Win32,60,,,0,32,32,32,1,,
,,0.20875,0.08125,1,0,0,7.538,probe1,"[0.2,0.1]",,,,,,34,probe5,0.05,0.05,0.2,0.1,#e69f00,#e69f00,,-0.2,0.1,#cc79a7,#cc79a7,,0.1,-0.2,#0072b2,#0072b2,,0.2,-0.2,#d55e00,#d55e00,,-0.2,0,#56b4e9,#009e73,,A211KGJ94WNFLN,001,2020-12-11_17h26.12.833,change-localization,2020.1.2,Win32,60,,,0,33,33,33,1,,
,,0.12,0.205,1,0,0,8.049,probe5,"[0.1,0.2]",,,,,,35,probe2,0.05,0.05,0.2,0,#56b4e9,#56b4e9,,0.2,-0.1,#e69f00,#009e73,,0.1,-0.1,#f0e442,#f0e442,,0,0.2,#d55e00,#d55e00,,0.1,0.2,#cc79a7,#cc79a7,,A211KGJ94WNFLN,001,2020-12-11_17h26.12.833,change-localization,2020.1.2,Win32,60,,,0,34,34,34,1,,
,,0.025,0.10375,1,0,0,11.993,probe1,"[0,0.1]",,,,,,36,probe3,0.05,0.05,0,0.1,#4A4A4A,#4A4A4A,,0.2,0.1,#009e73,#009e73,,-0.2,-0.1,#f0e442,#56b4e9,,-0.1,-0.1,#e69f00,#e69f00,,0.1,0,#0072b2,#0072b2,,A211KGJ94WNFLN,001,2020-12-11_17h26.12.833,change-localization,2020.1.2,Win32,60,,,0,35,35,35,1,,
,,-0.1,0.2,1,0,0,2.261,probe4,"[-0.1,0.2]",,,,,,37,probe5,0.05,0.05,-0.2,0.1,#e69f00,#e69f00,,0.1,0.1,#0072b2,#0072b2,,-0.2,0,#d55e00,#d55e00,,-0.1,0.2,#cc79a7,#cc79a7,,0.1,0,#009e73,#f0e442,,A211KGJ94WNFLN,001,2020-12-11_17h26.12.833,change-localization,2020.1.2,Win32,60,,,0,36,36,36,1,,
,,0.09,-0.0175,1,0,0,9.829,probe4,"[0.1,0]",,,,,,38,probe4,0.05,0.05,0.2,-0.2,#4A4A4A,#4A4A4A,,0.2,0,#0072b2,#0072b2,,0.1,-0.1,#e69f00,#e69f00,,0.1,0,#d55e00,#cc79a7,,0,-0.1,#009e73,#009e73,,A211KGJ94WNFLN,001,2020-12-11_17h26.12.833,change-localization,2020.1.2,Win32,60,,,0,37,37,37,1,,
,,0.205,0.09625,1,0,0,12.215,probe3,"[0.2,0.1]",,,,,,39,probe4,0.05,0.05,0.1,-0.1,#e69f00,#e69f00,,-0.2,-0.1,#cc79a7,#cc79a7,,0.2,0.1,#d55e00,#d55e00,,-0.2,0.2,#56b4e9,#f0e442,,0,-0.1,#0072b2,#0072b2,,A211KGJ94WNFLN,001,2020-12-11_17h26.12.833,change-localization,2020.1.2,Win32,60,,,0,38,38,38,1,,
,,-0.205,0.085,1,0,0,14.673,probe1,"[-0.2,0.1]",,,,,,40,probe1,0.05,0.05,-0.2,0.1,#4A4A4A,#d55e00,,0.2,0.2,#009e73,#009e73,,-0.1,-0.1,#cc79a7,#cc79a7,,0.2,-0.2,#e69f00,#e69f00,,0.1,-0.1,#56b4e9,#56b4e9,,A211KGJ94WNFLN,001,2020-12-11_17h26.12.833,change-localization,2020.1.2,Win32,60,,,0,39,39,39,1,,
,,-0.095,-0.00625,1,0,0,24.82,probe4,"[-0.1,0]",,,,,,41,probe4,0.05,0.05,0.2,0.1,#009e73,#009e73,,-0.2,-0.1,#0072b2,#0072b2,,-0.2,-0.2,#56b4e9,#56b4e9,,-0.1,0,#f0e442,#cc79a7,,0,-0.2,#d55e00,#d55e00,,A211KGJ94WNFLN,001,2020-12-11_17h26.12.833,change-localization,2020.1.2,Win32,60,,,0,40,40,40,1,,
,,-0.095,-0.00625,1,0,0,1.082,probe5,"[-0.1,0]",,,,,,42,probe4,0.05,0.05,-0.1,-0.2,#009e73,#009e73,,-0.1,0.1,#cc79a7,#cc79a7,,0.1,0.1,#56b4e9,#56b4e9,,0,-0.2,#e69f00,#d55e00,,-0.1,0,#0072b2,#0072b2,,A211KGJ94WNFLN,001,2020-12-11_17h26.12.833,change-localization,2020.1.2,Win32,60,,,0,41,41,41,1,,
,,-0.1725,0.0725,1,0,0,7.41,probe5,"[-0.2,0.1]",,,,,,43,probe1,0.05,0.05,0.2,-0.1,#e69f00,#009e73,,0.1,0,#cc79a7,#cc79a7,,-0.2,-0.2,#f0e442,#f0e442,,0.2,-0.2,#56b4e9,#56b4e9,,-0.2,0.1,#4A4A4A,#4A4A4A,,A211KGJ94WNFLN,001,2020-12-11_17h26.12.833,change-localization,2020.1.2,Win32,60,,,0,42,42,42,1,,
,,-0.10625,0.18375,1,0,0,6.947,probe1,"[-0.1,0.2]",,,,,,44,probe1,0.05,0.05,-0.1,0.2,#56b4e9,#e69f00,,0.2,0.1,#4A4A4A,#4A4A4A,,0.1,0,#cc79a7,#cc79a7,,0.1,0.2,#f0e442,#f0e442,,-0.1,-0.1,#d55e00,#d55e00,,A211KGJ94WNFLN,001,2020-12-11_17h26.12.833,change-localization,2020.1.2,Win32,60,,,0,43,43,43,1,,
,,-0.10625,0.18375,1,0,0,15.649,probe4,"[-0.1,0.2]",,,,,,45,probe3,0.05,0.05,-0.2,0.2,#0072b2,#0072b2,,-0.2,-0.1,#56b4e9,#56b4e9,,-0.1,0.1,#f0e442,#e69f00,,-0.1,0.2,#d55e00,#d55e00,,0,-0.2,#cc79a7,#cc79a7,,A211KGJ94WNFLN,001,2020-12-11_17h26.12.833,change-localization,2020.1.2,Win32,60,,,0,44,44,44,1,,
,,0.215,-0.0275,1,0,0,19.682,probe5,"[0.2,0]",,,,,,46,probe5,0.05,0.05,0.2,0.1,#0072b2,#0072b2,,0.1,0.2,#f0e442,#f0e442,,0.2,-0.2,#009e73,#009e73,,0.2,0.2,#4A4A4A,#4A4A4A,,0.2,0,#cc79a7,#e69f00,,A211KGJ94WNFLN,001,2020-12-11_17h26.12.833,change-localization,2020.1.2,Win32,60,,,0,45,45,45,1,,
,,-0.10875,0.19875,1,0,0,5.182,probe4,"[-0.1,0.2]",,,,,,47,probe3,0.05,0.05,0,-0.1,#009e73,#009e73,,-0.2,0.2,#f0e442,#f0e442,,0.2,0.2,#56b4e9,#cc79a7,,-0.1,0.2,#4A4A4A,#4A4A4A,,-0.1,0.1,#e69f00,#e69f00,,A211KGJ94WNFLN,001,2020-12-11_17h26.12.833,change-localization,2020.1.2,Win32,60,,,0,46,46,46,1,,
,,-0.11125,0.07875,1,0,0,13.854,probe2,"[-0.1,0.1]",,,,,,48,probe4,0.05,0.05,0.2,-0.2,#cc79a7,#cc79a7,,-0.1,0.1,#009e73,#009e73,,0.1,-0.2,#f0e442,#f0e442,,-0.2,-0.1,#d55e00,#0072b2,,-0.1,0,#56b4e9,#56b4e9,,A211KGJ94WNFLN,001,2020-12-11_17h26.12.833,change-localization,2020.1.2,Win32,60,,,0,47,47,47,1,,
,,-0.10375,-0.11,1,0,0,1.587,probe5,"[-0.1,-0.1]",,,,,,49,probe2,0.05,0.05,0,-0.2,#e69f00,#e69f00,,-0.2,0,#cc79a7,#0072b2,,-0.1,0.2,#f0e442,#f0e442,,0.1,0.2,#4A4A4A,#4A4A4A,,-0.1,-0.1,#56b4e9,#56b4e9,,A211KGJ94WNFLN,001,2020-12-11_17h26.12.833,change-localization,2020.1.2,Win32,60,,,0,48,48,48,1,,
,,-0.1,0.015,1,0,0,6.872,probe4,"[-0.1,0]",,,,,,50,probe4,0.05,0.05,0.2,0.1,#0072b2,#0072b2,,0.1,0.1,#cc79a7,#cc79a7,,0.1,-0.2,#56b4e9,#56b4e9,,-0.1,0,#009e73,#e69f00,,0,0.1,#d55e00,#d55e00,,A211KGJ94WNFLN,001,2020-12-11_17h26.12.833,change-localization,2020.1.2,Win32,60,,,0,49,49,49,1,,
,,,,,,,,,,,,,,,,,,,,,,,,,,,,,,,,,,,,,,,,,,,,A211KGJ94WNFLN,001,2020-12-11_17h26.12.833,change-localization,2020.1.2,Win32,60,,,,,,,,c,43.337
