key_resp.keys,key_resp.rt,mouse.x,mouse.y,mouse.leftButton,mouse.midButton,mouse.rightButton,mouse.time,mouse.clicked_name,mouse.clicked_pos,training.thisRepN,training.thisTrialN,training.thisN,training.thisIndex,training.ran,trial,answer,height,width,x1,y1,stim_color1,probe_color1,copy_color1,x2,y2,stim_color2,probe_color2,copy_color2,x3,y3,stim_color3,probe_color3,copy_color3,x4,y4,stim_color4,probe_color4,copy_color4,x5,y5,stim_color5,probe_color5,copy_color5,participant,session,date,expName,psychopyVersion,OS,frameRate,key_resp_2.keys,key_resp_2.rt,trials.thisRepN,trials.thisTrialN,trials.thisN,trials.thisIndex,trials.ran,completion_keys.keys,completion_keys.rt
c,22.50131,0.19921875,-0.106770833,1,0,0,2.869905,probe4,"[0.2,-0.1]",0,0,0,0,1,1,probe4,0.05,0.05,0.1,0.2,#0072b2,#0072b2,#0072b2,0.1,-0.1,#e69f00,#e69f00,#e69f00,-0.1,-0.2,#cc79a7,#cc79a7,#cc79a7,0.2,-0.1,#4A4A4A,#f0e442,#FFFFFF,0.2,0,#009e73,#009e73,#009e73,A27VBVMMEX9GJB,001,2020-12-11_21h50.34.330,change-localization,2020.1.2,Win32,60,,,,,,,,,
,,0.098958333,-0.00390625,1,0,0,3.107065,probe3,"[0.1,0]",0,1,1,1,1,2,probe1,0.05,0.05,0.2,0,#d55e00,#009e73,#FFFFFF,0.2,-0.1,#e69f00,#e69f00,#e69f00,0.1,0,#4A4A4A,#4A4A4A,#4A4A4A,-0.1,0.1,#56b4e9,#56b4e9,#56b4e9,-0.1,0,#cc79a7,#cc79a7,#cc79a7,A27VBVMMEX9GJB,001,2020-12-11_21h50.34.330,change-localization,2020.1.2,Win32,60,,,,,,,,,
,,-0.209635417,-0.01171875,1,0,0,1.85495,probe3,"[-0.2,0]",0,2,2,2,1,3,probe1,0.05,0.05,-0.2,-0.2,#f0e442,#009e73,#FFFFFF,0.2,-0.1,#d55e00,#d55e00,#d55e00,-0.2,0,#4A4A4A,#4A4A4A,#4A4A4A,-0.1,-0.1,#0072b2,#0072b2,#0072b2,0,-0.1,#56b4e9,#56b4e9,#56b4e9,A27VBVMMEX9GJB,001,2020-12-11_21h50.34.330,change-localization,2020.1.2,Win32,60,,,,,,,,,
,,0.212239583,0.196614583,1,0,0,2.01485,probe1,"[0.2,0.2]",0,3,3,3,1,4,probe1,0.05,0.05,0.2,0.2,#d55e00,#56b4e9,#FFFFFF,-0.2,0.2,#f0e442,#f0e442,#f0e442,0.2,-0.2,#0072b2,#0072b2,#0072b2,-0.2,0,#cc79a7,#cc79a7,#cc79a7,-0.2,0.1,#4A4A4A,#4A4A4A,#4A4A4A,A27VBVMMEX9GJB,001,2020-12-11_21h50.34.330,change-localization,2020.1.2,Win32,60,,,,,,,,,
,,-0.009114583,0.1015625,1,0,0,1.154895,probe3,"[0,0.1]",0,4,4,4,1,5,probe3,0.05,0.05,-0.2,0.1,#56b4e9,#56b4e9,#56b4e9,0,0.2,#009e73,#009e73,#009e73,0,0.1,#0072b2,#cc79a7,#FFFFFF,-0.1,-0.1,#4A4A4A,#4A4A4A,#4A4A4A,0.2,0,#f0e442,#f0e442,#f0e442,A27VBVMMEX9GJB,001,2020-12-11_21h50.34.330,change-localization,2020.1.2,Win32,60,,,,,,,,,
,,0.108072917,-0.002604167,1,0,0,1.64923,probe5,"[0.1,0]",0,5,5,5,1,6,probe5,0.05,0.05,-0.1,0.1,#f0e442,#f0e442,#f0e442,0,0.1,#009e73,#009e73,#009e73,-0.2,0,#4A4A4A,#4A4A4A,#4A4A4A,0,-0.2,#d55e00,#d55e00,#d55e00,0.1,0,#cc79a7,#0072b2,#FFFFFF,A27VBVMMEX9GJB,001,2020-12-11_21h50.34.330,change-localization,2020.1.2,Win32,60,,,,,,,,,
,,-0.188802083,0.204427083,1,0,0,1.79631,probe4,"[-0.2,0.2]",0,6,6,6,1,7,probe2,0.05,0.05,-0.2,-0.2,#4A4A4A,#4A4A4A,#4A4A4A,0.1,0.2,#0072b2,#d55e00,#FFFFFF,-0.1,-0.2,#f0e442,#f0e442,#f0e442,-0.2,0.2,#009e73,#009e73,#009e73,0.2,0.2,#e69f00,#e69f00,#e69f00,A27VBVMMEX9GJB,001,2020-12-11_21h50.34.330,change-localization,2020.1.2,Win32,60,,,,,,,,,
,,0.096354167,-0.186197917,1,0,0,1.34095,probe1,"[0.1,-0.2]",0,7,7,7,1,8,probe1,0.05,0.05,0.1,-0.2,#009e73,#f0e442,#FFFFFF,-0.1,0,#d55e00,#d55e00,#d55e00,-0.1,0.1,#4A4A4A,#4A4A4A,#4A4A4A,-0.2,0,#cc79a7,#cc79a7,#cc79a7,0.2,0,#e69f00,#e69f00,#e69f00,A27VBVMMEX9GJB,001,2020-12-11_21h50.34.330,change-localization,2020.1.2,Win32,60,,,,,,,,,
,,-0.09765625,0.203125,1,0,0,1.583505,probe2,"[-0.1,0.2]",0,8,8,8,1,9,probe1,0.05,0.05,0.1,-0.2,#0072b2,#e69f00,#FFFFFF,-0.1,0.2,#f0e442,#f0e442,#f0e442,-0.2,0.1,#d55e00,#d55e00,#d55e00,0.2,0.2,#cc79a7,#cc79a7,#cc79a7,0.1,0.1,#56b4e9,#56b4e9,#56b4e9,A27VBVMMEX9GJB,001,2020-12-11_21h50.34.330,change-localization,2020.1.2,Win32,60,,,,,,,,,
,,0.009114583,0.18359375,1,0,0,1.4555,probe2,"[0,0.2]",0,9,9,9,1,10,probe1,0.05,0.05,-0.1,-0.1,#4A4A4A,#f0e442,#FFFFFF,0,0.2,#cc79a7,#cc79a7,#cc79a7,0.2,-0.2,#e69f00,#e69f00,#e69f00,0.1,-0.2,#009e73,#009e73,#009e73,0.1,0.1,#d55e00,#d55e00,#d55e00,A27VBVMMEX9GJB,001,2020-12-11_21h50.34.330,change-localization,2020.1.2,Win32,60,,,,,,,,,
,,0.0078125,-0.200520833,1,0,0,1.43598,probe4,"[0,-0.2]",,,,,,1,probe2,0.05,0.05,-0.2,0.2,#009e73,#009e73,,-0.1,0.2,#f0e442,#e69f00,,-0.1,0,#0072b2,#0072b2,,0,-0.2,#cc79a7,#cc79a7,,0,0.2,#d55e00,#d55e00,,A27VBVMMEX9GJB,001,2020-12-11_21h50.34.330,change-localization,2020.1.2,Win32,60,c,4.764385,0,0,0,0,1,,
,,0.1015625,0.10546875,1,0,0,1.54711,probe4,"[0.1,0.1]",,,,,,2,probe5,0.05,0.05,0,0.1,#009e73,#009e73,,0.2,0.1,#4A4A4A,#4A4A4A,,-0.1,-0.1,#cc79a7,#cc79a7,,0.1,0.1,#d55e00,#d55e00,,0,-0.1,#56b4e9,#e69f00,,A27VBVMMEX9GJB,001,2020-12-11_21h50.34.330,change-localization,2020.1.2,Win32,60,,,0,1,1,1,1,,
,,-0.119791667,0.19921875,1,0,0,1.48852,probe5,"[-0.1,0.2]",,,,,,3,probe4,0.05,0.05,0.1,-0.1,#56b4e9,#56b4e9,,0.2,0,#f0e442,#f0e442,,0.2,-0.1,#e69f00,#e69f00,,-0.1,0.1,#4A4A4A,#009e73,,-0.1,0.2,#d55e00,#d55e00,,A27VBVMMEX9GJB,001,2020-12-11_21h50.34.330,change-localization,2020.1.2,Win32,60,,,0,2,2,2,1,,
,,-0.188802083,0.005208333,1,0,0,1.4998,probe5,"[-0.2,0]",,,,,,4,probe5,0.05,0.05,0.2,0,#56b4e9,#56b4e9,,-0.2,-0.2,#cc79a7,#cc79a7,,0,0.2,#4A4A4A,#4A4A4A,,0.2,-0.2,#e69f00,#e69f00,,-0.2,0,#f0e442,#009e73,,A27VBVMMEX9GJB,001,2020-12-11_21h50.34.330,change-localization,2020.1.2,Win32,60,,,0,3,3,3,1,,
,,0.209635417,0.20703125,1,0,0,2.657055,probe2,"[0.2,0.2]",,,,,,5,probe3,0.05,0.05,-0.2,0.1,#4A4A4A,#4A4A4A,,0.2,0.2,#009e73,#009e73,,-0.1,-0.1,#0072b2,#f0e442,,0.2,0,#cc79a7,#cc79a7,,0.1,0.1,#e69f00,#e69f00,,A27VBVMMEX9GJB,001,2020-12-11_21h50.34.330,change-localization,2020.1.2,Win32,60,,,0,4,4,4,1,,
,,-0.208333333,-0.188802083,1,0,0,2.032995,probe5,"[-0.2,-0.2]",,,,,,6,probe4,0.05,0.05,-0.1,0.1,#d55e00,#d55e00,,-0.2,0.2,#0072b2,#0072b2,,0,-0.1,#e69f00,#e69f00,,0,0.2,#56b4e9,#4A4A4A,,-0.2,-0.2,#009e73,#009e73,,A27VBVMMEX9GJB,001,2020-12-11_21h50.34.330,change-localization,2020.1.2,Win32,60,,,0,5,5,5,1,,
,,0.203125,0.205729167,1,0,0,1.603985,probe4,"[0.2,0.2]",,,,,,7,probe4,0.05,0.05,0.2,-0.1,#56b4e9,#56b4e9,,-0.1,-0.1,#e69f00,#e69f00,,-0.2,0.2,#009e73,#009e73,,0.2,0.2,#cc79a7,#4A4A4A,,0.2,-0.2,#d55e00,#d55e00,,A27VBVMMEX9GJB,001,2020-12-11_21h50.34.330,change-localization,2020.1.2,Win32,60,,,0,6,6,6,1,,
,,-0.21875,0.1953125,1,0,0,1.86825,probe4,"[-0.2,0.2]",,,,,,8,probe4,0.05,0.05,-0.2,0.1,#e69f00,#e69f00,,0.1,0.2,#cc79a7,#cc79a7,,0.2,0.1,#4A4A4A,#4A4A4A,,-0.2,0.2,#56b4e9,#d55e00,,0.2,-0.1,#0072b2,#0072b2,,A27VBVMMEX9GJB,001,2020-12-11_21h50.34.330,change-localization,2020.1.2,Win32,60,,,0,7,7,7,1,,
,,0.194010417,0.203125,1,0,0,1.243705,probe5,"[0.2,0.2]",,,,,,9,probe5,0.05,0.05,-0.1,0,#4A4A4A,#4A4A4A,,0.1,0.1,#56b4e9,#56b4e9,,-0.2,0.1,#009e73,#009e73,,0.2,0.1,#cc79a7,#cc79a7,,0.2,0.2,#d55e00,#f0e442,,A27VBVMMEX9GJB,001,2020-12-11_21h50.34.330,change-localization,2020.1.2,Win32,60,,,0,8,8,8,1,,
,,0.091145833,-0.108072917,1,0,0,3.066955,probe2,"[0.1,-0.1]",,,,,,10,probe3,0.05,0.05,0.2,0.2,#f0e442,#f0e442,,0.1,-0.1,#e69f00,#e69f00,,0,0.1,#cc79a7,#4A4A4A,,-0.2,0.1,#56b4e9,#56b4e9,,0.2,0,#0072b2,#0072b2,,A27VBVMMEX9GJB,001,2020-12-11_21h50.34.330,change-localization,2020.1.2,Win32,60,,,0,9,9,9,1,,
,,-0.010416667,-0.20703125,1,0,0,1.267005,probe4,"[0,-0.2]",,,,,,11,probe5,0.05,0.05,0.2,0.2,#4A4A4A,#4A4A4A,,0.1,0.2,#0072b2,#0072b2,,0.1,-0.1,#cc79a7,#cc79a7,,0,-0.2,#009e73,#009e73,,0.1,-0.2,#f0e442,#d55e00,,A27VBVMMEX9GJB,001,2020-12-11_21h50.34.330,change-localization,2020.1.2,Win32,60,,,0,10,10,10,1,,
,,0.106770833,0.00390625,1,0,0,1.34159,probe4,"[0.1,0]",,,,,,12,probe4,0.05,0.05,-0.1,-0.1,#009e73,#009e73,,-0.1,0,#56b4e9,#56b4e9,,-0.1,-0.2,#0072b2,#0072b2,,0.1,0,#d55e00,#f0e442,,0,-0.1,#cc79a7,#cc79a7,,A27VBVMMEX9GJB,001,2020-12-11_21h50.34.330,change-localization,2020.1.2,Win32,60,,,0,11,11,11,1,,
,,-0.2109375,0.208333333,1,0,0,1.30195,probe4,"[-0.2,0.2]",,,,,,13,probe4,0.05,0.05,0,-0.1,#f0e442,#f0e442,,0.1,-0.1,#d55e00,#d55e00,,0.1,0.1,#0072b2,#0072b2,,-0.2,0.2,#cc79a7,#4A4A4A,,0.1,0.2,#009e73,#009e73,,A27VBVMMEX9GJB,001,2020-12-11_21h50.34.330,change-localization,2020.1.2,Win32,60,,,0,12,12,12,1,,
,,0.005208333,0.204427083,1,0,0,1.409215,probe1,"[0,0.2]",,,,,,14,probe5,0.05,0.05,0,0.2,#cc79a7,#cc79a7,,0,-0.1,#4A4A4A,#4A4A4A,,-0.2,0,#56b4e9,#56b4e9,,0.1,0.1,#0072b2,#0072b2,,0.1,0.2,#009e73,#e69f00,,A27VBVMMEX9GJB,001,2020-12-11_21h50.34.330,change-localization,2020.1.2,Win32,60,,,0,13,13,13,1,,
,,0.200520833,0.209635417,1,0,0,1.32783,probe1,"[0.2,0.2]",,,,,,15,probe3,0.05,0.05,0.2,0.2,#cc79a7,#cc79a7,,0,0.2,#56b4e9,#56b4e9,,0.2,0.1,#d55e00,#4A4A4A,,0.1,-0.1,#f0e442,#f0e442,,0.2,-0.1,#0072b2,#0072b2,,A27VBVMMEX9GJB,001,2020-12-11_21h50.34.330,change-localization,2020.1.2,Win32,60,,,0,14,14,14,1,,
,,-0.220052083,0.111979167,1,0,0,1.52132,probe4,"[-0.2,0.1]",,,,,,16,probe3,0.05,0.05,-0.2,-0.1,#f0e442,#f0e442,,-0.2,0.2,#d55e00,#d55e00,,0.1,0.1,#009e73,#4A4A4A,,-0.2,0.1,#56b4e9,#56b4e9,,0,-0.1,#cc79a7,#cc79a7,,A27VBVMMEX9GJB,001,2020-12-11_21h50.34.330,change-localization,2020.1.2,Win32,60,,,0,15,15,15,1,,
,,-0.21875,-0.104166667,1,0,0,1.66687,probe4,"[-0.2,-0.1]",,,,,,17,probe3,0.05,0.05,0.2,-0.1,#cc79a7,#cc79a7,,0,-0.2,#0072b2,#0072b2,,0,0.1,#4A4A4A,#e69f00,,-0.2,-0.1,#f0e442,#f0e442,,-0.1,-0.1,#009e73,#009e73,,A27VBVMMEX9GJB,001,2020-12-11_21h50.34.330,change-localization,2020.1.2,Win32,60,,,0,16,16,16,1,,
,,0.108072917,-0.09375,1,0,0,1.40029,probe4,"[0.1,-0.1]",,,,,,18,probe3,0.05,0.05,-0.1,0.1,#d55e00,#d55e00,,-0.1,0.2,#e69f00,#e69f00,,0.2,0,#009e73,#0072b2,,0.1,-0.1,#cc79a7,#cc79a7,,-0.2,0.2,#4A4A4A,#4A4A4A,,A27VBVMMEX9GJB,001,2020-12-11_21h50.34.330,change-localization,2020.1.2,Win32,60,,,0,17,17,17,1,,
,,-0.111979167,0.096354167,1,0,0,1.53847,probe3,"[-0.1,0.1]",,,,,,19,probe3,0.05,0.05,-0.1,0.2,#0072b2,#0072b2,,0,-0.1,#4A4A4A,#4A4A4A,,-0.1,0.1,#e69f00,#009e73,,0.2,0.1,#d55e00,#d55e00,,-0.2,0.1,#cc79a7,#cc79a7,,A27VBVMMEX9GJB,001,2020-12-11_21h50.34.330,change-localization,2020.1.2,Win32,60,,,0,18,18,18,1,,
,,-0.212239583,-0.190104167,1,0,0,1.210705,probe3,"[-0.2,-0.2]",,,,,,20,probe4,0.05,0.05,0.2,0,#56b4e9,#56b4e9,,-0.1,0.2,#009e73,#009e73,,-0.2,-0.2,#e69f00,#e69f00,,0,-0.1,#f0e442,#cc79a7,,-0.1,0,#4A4A4A,#4A4A4A,,A27VBVMMEX9GJB,001,2020-12-11_21h50.34.330,change-localization,2020.1.2,Win32,60,,,0,19,19,19,1,,
,,-0.20703125,0.194010417,1,0,0,1.47606,probe4,"[-0.2,0.2]",,,,,,21,probe3,0.05,0.05,-0.1,0.1,#0072b2,#0072b2,,-0.1,0.2,#009e73,#009e73,,0.2,0,#56b4e9,#4A4A4A,,-0.2,0.2,#f0e442,#f0e442,,0.2,0.1,#d55e00,#d55e00,,A27VBVMMEX9GJB,001,2020-12-11_21h50.34.330,change-localization,2020.1.2,Win32,60,,,0,20,20,20,1,,
,,-0.209635417,-0.109375,1,0,0,1.92515,probe4,"[-0.2,-0.1]",,,,,,22,probe4,0.05,0.05,0.2,-0.1,#d55e00,#d55e00,,0.2,0,#56b4e9,#56b4e9,,0.1,-0.2,#cc79a7,#cc79a7,,-0.2,-0.1,#4A4A4A,#009e73,,0,-0.2,#e69f00,#e69f00,,A27VBVMMEX9GJB,001,2020-12-11_21h50.34.330,change-localization,2020.1.2,Win32,60,,,0,21,21,21,1,,
,,-0.1875,-0.194010417,1,0,0,1.327795,probe4,"[-0.2,-0.2]",,,,,,23,probe4,0.05,0.05,0.1,0.1,#56b4e9,#56b4e9,,-0.2,-0.1,#0072b2,#0072b2,,0.2,0,#d55e00,#d55e00,,-0.2,-0.2,#cc79a7,#009e73,,0.1,-0.2,#4A4A4A,#4A4A4A,,A27VBVMMEX9GJB,001,2020-12-11_21h50.34.330,change-localization,2020.1.2,Win32,60,,,0,22,22,22,1,,
,,0.196614583,0.1953125,1,0,0,1.85869,probe2,"[0.2,0.2]",,,,,,24,probe2,0.05,0.05,-0.1,-0.2,#4A4A4A,#4A4A4A,,0.2,0.2,#d55e00,#e69f00,,0.1,-0.1,#f0e442,#f0e442,,0.1,0.1,#56b4e9,#56b4e9,,-0.2,0.1,#cc79a7,#cc79a7,,A27VBVMMEX9GJB,001,2020-12-11_21h50.34.330,change-localization,2020.1.2,Win32,60,,,0,23,23,23,1,,
,,0.1875,-0.0078125,1,0,0,1.75572,probe3,"[0.2,0]",,,,,,25,probe3,0.05,0.05,-0.2,-0.2,#f0e442,#f0e442,,-0.1,-0.1,#4A4A4A,#4A4A4A,,0.2,0,#d55e00,#cc79a7,,0,0.2,#0072b2,#0072b2,,-0.2,0.1,#009e73,#009e73,,A27VBVMMEX9GJB,001,2020-12-11_21h50.34.330,change-localization,2020.1.2,Win32,60,,,0,24,24,24,1,,
,,-0.192708333,-0.005208333,1,0,0,1.35866,probe2,"[-0.2,0]",,,,,,26,probe3,0.05,0.05,0.1,-0.1,#e69f00,#e69f00,,-0.2,0,#56b4e9,#56b4e9,,-0.1,-0.2,#009e73,#d55e00,,-0.2,-0.1,#4A4A4A,#4A4A4A,,0.1,0,#cc79a7,#cc79a7,,A27VBVMMEX9GJB,001,2020-12-11_21h50.34.330,change-localization,2020.1.2,Win32,60,,,0,25,25,25,1,,
,,0.19921875,0.005208333,1,0,0,1.31751,probe2,"[0.2,0]",,,,,,27,probe5,0.05,0.05,-0.1,-0.2,#009e73,#009e73,,0.2,0,#cc79a7,#cc79a7,,-0.1,-0.1,#e69f00,#e69f00,,0.1,0.1,#d55e00,#d55e00,,-0.2,-0.1,#4A4A4A,#0072b2,,A27VBVMMEX9GJB,001,2020-12-11_21h50.34.330,change-localization,2020.1.2,Win32,60,,,0,26,26,26,1,,
,,0.091145833,0.10546875,1,0,0,1.12016,probe5,"[0.1,0.1]",,,,,,28,probe5,0.05,0.05,-0.1,0.2,#009e73,#009e73,,-0.2,0.1,#56b4e9,#56b4e9,,0,-0.2,#d55e00,#d55e00,,0.1,0,#0072b2,#0072b2,,0.1,0.1,#f0e442,#e69f00,,A27VBVMMEX9GJB,001,2020-12-11_21h50.34.330,change-localization,2020.1.2,Win32,60,,,0,27,27,27,1,,
,,0.100260417,0.209635417,1,0,0,1.119545,probe4,"[0.1,0.2]",,,,,,29,probe1,0.05,0.05,0.1,-0.1,#4A4A4A,#56b4e9,,-0.2,0.2,#e69f00,#e69f00,,-0.1,-0.1,#f0e442,#f0e442,,0.1,0.2,#0072b2,#0072b2,,-0.1,-0.2,#cc79a7,#cc79a7,,A27VBVMMEX9GJB,001,2020-12-11_21h50.34.330,change-localization,2020.1.2,Win32,60,,,0,28,28,28,1,,
,,-0.110677083,-0.2109375,1,0,0,1.55002,probe2,"[-0.1,-0.2]",,,,,,30,probe2,0.05,0.05,0.1,0.2,#f0e442,#f0e442,,-0.1,-0.2,#d55e00,#4A4A4A,,0,-0.2,#cc79a7,#cc79a7,,0.1,-0.2,#0072b2,#0072b2,,-0.2,0,#009e73,#009e73,,A27VBVMMEX9GJB,001,2020-12-11_21h50.34.330,change-localization,2020.1.2,Win32,60,,,0,29,29,29,1,,
,,-0.19921875,-0.110677083,1,0,0,1.70965,probe4,"[-0.2,-0.1]",,,,,,31,probe5,0.05,0.05,0,-0.2,#d55e00,#d55e00,,0.1,0,#e69f00,#e69f00,,0.1,0.2,#f0e442,#f0e442,,-0.2,-0.1,#cc79a7,#cc79a7,,-0.1,-0.1,#009e73,#4A4A4A,,A27VBVMMEX9GJB,001,2020-12-11_21h50.34.330,change-localization,2020.1.2,Win32,60,,,0,30,30,30,1,,
,,0.178385417,0.084635417,1,0,0,1.41887,probe3,"[0.2,0.1]",,,,,,32,probe3,0.05,0.05,0.2,0.2,#56b4e9,#56b4e9,,-0.1,-0.1,#009e73,#009e73,,0.2,0.1,#cc79a7,#0072b2,,-0.2,0.1,#4A4A4A,#4A4A4A,,-0.2,-0.1,#f0e442,#f0e442,,A27VBVMMEX9GJB,001,2020-12-11_21h50.34.330,change-localization,2020.1.2,Win32,60,,,0,31,31,31,1,,
,,-0.08984375,0.1015625,1,0,0,1.042025,probe3,"[-0.1,0.1]",,,,,,33,probe3,0.05,0.05,-0.1,-0.1,#0072b2,#0072b2,,0.1,0.1,#cc79a7,#cc79a7,,-0.1,0.1,#f0e442,#009e73,,0,-0.2,#56b4e9,#56b4e9,,0.1,0.2,#e69f00,#e69f00,,A27VBVMMEX9GJB,001,2020-12-11_21h50.34.330,change-localization,2020.1.2,Win32,60,,,0,32,32,32,1,,
,,0.213541667,0.110677083,1,0,0,0.653865,probe1,"[0.2,0.1]",,,,,,34,probe5,0.05,0.05,0.2,0.1,#e69f00,#e69f00,,-0.2,0.1,#cc79a7,#cc79a7,,0.1,-0.2,#0072b2,#0072b2,,0.2,-0.2,#d55e00,#d55e00,,-0.2,0,#56b4e9,#009e73,,A27VBVMMEX9GJB,001,2020-12-11_21h50.34.330,change-localization,2020.1.2,Win32,60,,,0,33,33,33,1,,
,,0.19140625,-0.084635417,1,0,0,0.73535,probe2,"[0.2,-0.1]",,,,,,35,probe2,0.05,0.05,0.2,0,#56b4e9,#56b4e9,,0.2,-0.1,#e69f00,#009e73,,0.1,-0.1,#f0e442,#f0e442,,0,0.2,#d55e00,#d55e00,,0.1,0.2,#cc79a7,#cc79a7,,A27VBVMMEX9GJB,001,2020-12-11_21h50.34.330,change-localization,2020.1.2,Win32,60,,,0,34,34,34,1,,
,,-0.0859375,-0.095052083,1,0,0,1.47496,probe4,"[-0.1,-0.1]",,,,,,36,probe3,0.05,0.05,0,0.1,#4A4A4A,#4A4A4A,,0.2,0.1,#009e73,#009e73,,-0.2,-0.1,#f0e442,#56b4e9,,-0.1,-0.1,#e69f00,#e69f00,,0.1,0,#0072b2,#0072b2,,A27VBVMMEX9GJB,001,2020-12-11_21h50.34.330,change-localization,2020.1.2,Win32,60,,,0,35,35,35,1,,
,,-0.197916667,0.09375,1,0,0,0.64017,probe1,"[-0.2,0.1]",,,,,,37,probe5,0.05,0.05,-0.2,0.1,#e69f00,#e69f00,,0.1,0.1,#0072b2,#0072b2,,-0.2,0,#d55e00,#d55e00,,-0.1,0.2,#cc79a7,#cc79a7,,0.1,0,#009e73,#f0e442,,A27VBVMMEX9GJB,001,2020-12-11_21h50.34.330,change-localization,2020.1.2,Win32,60,,,0,36,36,36,1,,
,,0.096354167,-0.0859375,1,0,0,0.73823,probe3,"[0.1,-0.1]",,,,,,38,probe4,0.05,0.05,0.2,-0.2,#4A4A4A,#4A4A4A,,0.2,0,#0072b2,#0072b2,,0.1,-0.1,#e69f00,#e69f00,,0.1,0,#d55e00,#cc79a7,,0,-0.1,#009e73,#009e73,,A27VBVMMEX9GJB,001,2020-12-11_21h50.34.330,change-localization,2020.1.2,Win32,60,,,0,37,37,37,1,,
,,-0.188802083,-0.102864583,1,0,0,0.81345,probe2,"[-0.2,-0.1]",,,,,,39,probe4,0.05,0.05,0.1,-0.1,#e69f00,#e69f00,,-0.2,-0.1,#cc79a7,#cc79a7,,0.2,0.1,#d55e00,#d55e00,,-0.2,0.2,#56b4e9,#f0e442,,0,-0.1,#0072b2,#0072b2,,A27VBVMMEX9GJB,001,2020-12-11_21h50.34.330,change-localization,2020.1.2,Win32,60,,,0,38,38,38,1,,
,,-0.088541667,-0.096354167,1,0,0,1.27039,probe3,"[-0.1,-0.1]",,,,,,40,probe1,0.05,0.05,-0.2,0.1,#4A4A4A,#d55e00,,0.2,0.2,#009e73,#009e73,,-0.1,-0.1,#cc79a7,#cc79a7,,0.2,-0.2,#e69f00,#e69f00,,0.1,-0.1,#56b4e9,#56b4e9,,A27VBVMMEX9GJB,001,2020-12-11_21h50.34.330,change-localization,2020.1.2,Win32,60,,,0,39,39,39,1,,
,,-0.0859375,-0.00390625,1,0,0,0.849635,probe4,"[-0.1,0]",,,,,,41,probe4,0.05,0.05,0.2,0.1,#009e73,#009e73,,-0.2,-0.1,#0072b2,#0072b2,,-0.2,-0.2,#56b4e9,#56b4e9,,-0.1,0,#f0e442,#cc79a7,,0,-0.2,#d55e00,#d55e00,,A27VBVMMEX9GJB,001,2020-12-11_21h50.34.330,change-localization,2020.1.2,Win32,60,,,0,40,40,40,1,,
,,-0.092447917,-0.00390625,1,0,0,2.11431,probe5,"[-0.1,0]",,,,,,42,probe4,0.05,0.05,-0.1,-0.2,#009e73,#009e73,,-0.1,0.1,#cc79a7,#cc79a7,,0.1,0.1,#56b4e9,#56b4e9,,0,-0.2,#e69f00,#d55e00,,-0.1,0,#0072b2,#0072b2,,A27VBVMMEX9GJB,001,2020-12-11_21h50.34.330,change-localization,2020.1.2,Win32,60,,,0,41,41,41,1,,
,,-0.208333333,0.100260417,1,0,0,1.008535,probe5,"[-0.2,0.1]",,,,,,43,probe1,0.05,0.05,0.2,-0.1,#e69f00,#009e73,,0.1,0,#cc79a7,#cc79a7,,-0.2,-0.2,#f0e442,#f0e442,,0.2,-0.2,#56b4e9,#56b4e9,,-0.2,0.1,#4A4A4A,#4A4A4A,,A27VBVMMEX9GJB,001,2020-12-11_21h50.34.330,change-localization,2020.1.2,Win32,60,,,0,42,42,42,1,,
,,-0.098958333,-0.095052083,1,0,0,0.692155,probe5,"[-0.1,-0.1]",,,,,,44,probe1,0.05,0.05,-0.1,0.2,#56b4e9,#e69f00,,0.2,0.1,#4A4A4A,#4A4A4A,,0.1,0,#cc79a7,#cc79a7,,0.1,0.2,#f0e442,#f0e442,,-0.1,-0.1,#d55e00,#d55e00,,A27VBVMMEX9GJB,001,2020-12-11_21h50.34.330,change-localization,2020.1.2,Win32,60,,,0,43,43,43,1,,
,,-0.092447917,0.087239583,1,0,0,0.954045,probe3,"[-0.1,0.1]",,,,,,45,probe3,0.05,0.05,-0.2,0.2,#0072b2,#0072b2,,-0.2,-0.1,#56b4e9,#56b4e9,,-0.1,0.1,#f0e442,#e69f00,,-0.1,0.2,#d55e00,#d55e00,,0,-0.2,#cc79a7,#cc79a7,,A27VBVMMEX9GJB,001,2020-12-11_21h50.34.330,change-localization,2020.1.2,Win32,60,,,0,44,44,44,1,,
,,0.191780822,0.186453577,1,0,0,42.821375,probe4,"[0.2,0.2]",,,,,,46,probe5,0.05,0.05,0.2,0.1,#0072b2,#0072b2,,0.1,0.2,#f0e442,#f0e442,,0.2,-0.2,#009e73,#009e73,,0.2,0.2,#4A4A4A,#4A4A4A,,0.2,0,#cc79a7,#e69f00,,A27VBVMMEX9GJB,001,2020-12-11_21h50.34.330,change-localization,2020.1.2,Win32,60,,,0,45,45,45,1,,
,,0.193302892,0.191019787,1,0,0,1.33195,probe3,"[0.2,0.2]",,,,,,47,probe3,0.05,0.05,0,-0.1,#009e73,#009e73,,-0.2,0.2,#f0e442,#f0e442,,0.2,0.2,#56b4e9,#cc79a7,,-0.1,0.2,#4A4A4A,#4A4A4A,,-0.1,0.1,#e69f00,#e69f00,,A27VBVMMEX9GJB,001,2020-12-11_21h50.34.330,change-localization,2020.1.2,Win32,60,,,0,46,46,46,1,,
,,-0.095890411,0.000761035,1,0,0,1.12134,probe5,"[-0.1,0]",,,,,,48,probe4,0.05,0.05,0.2,-0.2,#cc79a7,#cc79a7,,-0.1,0.1,#009e73,#009e73,,0.1,-0.2,#f0e442,#f0e442,,-0.2,-0.1,#d55e00,#0072b2,,-0.1,0,#56b4e9,#56b4e9,,A27VBVMMEX9GJB,001,2020-12-11_21h50.34.330,change-localization,2020.1.2,Win32,60,,,0,47,47,47,1,,
,,-0.094368341,-0.098173516,1,0,0,0.919675,probe5,"[-0.1,-0.1]",,,,,,49,probe2,0.05,0.05,0,-0.2,#e69f00,#e69f00,,-0.2,0,#cc79a7,#0072b2,,-0.1,0.2,#f0e442,#f0e442,,0.1,0.2,#4A4A4A,#4A4A4A,,-0.1,-0.1,#56b4e9,#56b4e9,,A27VBVMMEX9GJB,001,2020-12-11_21h50.34.330,change-localization,2020.1.2,Win32,60,,,0,48,48,48,1,,
,,-0.089802131,-0.000761035,1,0,0,1.3755,probe4,"[-0.1,0]",,,,,,50,probe4,0.05,0.05,0.2,0.1,#0072b2,#0072b2,,0.1,0.1,#cc79a7,#cc79a7,,0.1,-0.2,#56b4e9,#56b4e9,,-0.1,0,#009e73,#e69f00,,0,0.1,#d55e00,#d55e00,,A27VBVMMEX9GJB,001,2020-12-11_21h50.34.330,change-localization,2020.1.2,Win32,60,,,0,49,49,49,1,,
,,,,,,,,,,,,,,,,,,,,,,,,,,,,,,,,,,,,,,,,,,,,A27VBVMMEX9GJB,001,2020-12-11_21h50.34.330,change-localization,2020.1.2,Win32,60,,,,,,,,c,16.079865
