key_resp.keys,key_resp.rt,mouse.x,mouse.y,mouse.leftButton,mouse.midButton,mouse.rightButton,mouse.time,mouse.clicked_name,mouse.clicked_pos,training.thisRepN,training.thisTrialN,training.thisN,training.thisIndex,training.ran,trial,answer,height,width,x1,y1,stim_color1,probe_color1,copy_color1,x2,y2,stim_color2,probe_color2,copy_color2,x3,y3,stim_color3,probe_color3,copy_color3,x4,y4,stim_color4,probe_color4,copy_color4,x5,y5,stim_color5,probe_color5,copy_color5,participant,session,date,expName,psychopyVersion,OS,frameRate,key_resp_2.keys,key_resp_2.rt,trials.thisRepN,trials.thisTrialN,trials.thisN,trials.thisIndex,trials.ran,completion_keys.keys,completion_keys.rt
c,17.46757,0.082867702,-0.10962073,1,0,0,2.031865,probe2,"[0.1,-0.1]",0,0,0,0,1,1,probe4,0.05,0.05,0.1,0.2,#0072b2,#0072b2,#0072b2,0.1,-0.1,#e69f00,#e69f00,#e69f00,-0.1,-0.2,#cc79a7,#cc79a7,#cc79a7,0.2,-0.1,#4A4A4A,#f0e442,#FFFFFF,0.2,0,#009e73,#009e73,#009e73,A2ER0EVZ7E1Z8G,001,2020-12-11_20h50.40.630,change-localization,2020.1.2,Linux x86_64,60,,,,,,,,,
,,0.205085993,-0.004162788,1,0,0,1.498585,probe1,"[0.2,0]",0,1,1,1,1,2,probe1,0.05,0.05,0.2,0,#d55e00,#009e73,#FFFFFF,0.2,-0.1,#e69f00,#e69f00,#e69f00,0.1,0,#4A4A4A,#4A4A4A,#4A4A4A,-0.1,0.1,#56b4e9,#56b4e9,#56b4e9,-0.1,0,#cc79a7,#cc79a7,#cc79a7,A2ER0EVZ7E1Z8G,001,2020-12-11_20h50.40.630,change-localization,2020.1.2,Linux x86_64,60,,,,,,,,,
,,-0.193049272,-0.205827951,1,0,0,1.365035,probe1,"[-0.2,-0.2]",0,2,2,2,1,3,probe1,0.05,0.05,-0.2,-0.2,#f0e442,#009e73,#FFFFFF,0.2,-0.1,#d55e00,#d55e00,#d55e00,-0.2,0,#4A4A4A,#4A4A4A,#4A4A4A,-0.1,-0.1,#0072b2,#0072b2,#0072b2,0,-0.1,#56b4e9,#56b4e9,#56b4e9,A2ER0EVZ7E1Z8G,001,2020-12-11_20h50.40.630,change-localization,2020.1.2,Linux x86_64,60,,,,,,,,,
,,0.201382399,0.20767808,1,0,0,2.21629,probe1,"[0.2,0.2]",0,3,3,3,1,4,probe1,0.05,0.05,0.2,0.2,#d55e00,#56b4e9,#FFFFFF,-0.2,0.2,#f0e442,#f0e442,#f0e442,0.2,-0.2,#0072b2,#0072b2,#0072b2,-0.2,0,#cc79a7,#cc79a7,#cc79a7,-0.2,0.1,#4A4A4A,#4A4A4A,#4A4A4A,A2ER0EVZ7E1Z8G,001,2020-12-11_20h50.40.630,change-localization,2020.1.2,Linux x86_64,60,,,,,,,,,
,,-0.001388788,0.090194265,1,0,0,1.16691,probe3,"[0,0.1]",0,4,4,4,1,5,probe3,0.05,0.05,-0.2,0.1,#56b4e9,#56b4e9,#56b4e9,0,0.2,#009e73,#009e73,#009e73,0,0.1,#0072b2,#cc79a7,#FFFFFF,-0.1,-0.1,#4A4A4A,#4A4A4A,#4A4A4A,0.2,0,#f0e442,#f0e442,#f0e442,A2ER0EVZ7E1Z8G,001,2020-12-11_20h50.40.630,change-localization,2020.1.2,Linux x86_64,60,,,,,,,,,
,,0.102311532,0.0023127,1,0,0,1.515065,probe5,"[0.1,0]",0,5,5,5,1,6,probe5,0.05,0.05,-0.1,0.1,#f0e442,#f0e442,#f0e442,0,0.1,#009e73,#009e73,#009e73,-0.2,0,#4A4A4A,#4A4A4A,#4A4A4A,0,-0.2,#d55e00,#d55e00,#d55e00,0.1,0,#cc79a7,#0072b2,#FFFFFF,A2ER0EVZ7E1Z8G,001,2020-12-11_20h50.40.630,change-localization,2020.1.2,Linux x86_64,60,,,,,,,,,
,,0.086571296,0.188251615,1,0,0,1.61419,probe2,"[0.1,0.2]",0,6,6,6,1,7,probe2,0.05,0.05,-0.2,-0.2,#4A4A4A,#4A4A4A,#4A4A4A,0.1,0.2,#0072b2,#d55e00,#FFFFFF,-0.1,-0.2,#f0e442,#f0e442,#f0e442,-0.2,0.2,#009e73,#009e73,#009e73,0.2,0.2,#e69f00,#e69f00,#e69f00,A2ER0EVZ7E1Z8G,001,2020-12-11_20h50.40.630,change-localization,2020.1.2,Linux x86_64,60,,,,,,,,,
,,0.117125829,-0.211378336,1,0,0,1.55117,probe1,"[0.1,-0.2]",0,7,7,7,1,8,probe1,0.05,0.05,0.1,-0.2,#009e73,#f0e442,#FFFFFF,-0.1,0,#d55e00,#d55e00,#d55e00,-0.1,0.1,#4A4A4A,#4A4A4A,#4A4A4A,-0.2,0,#cc79a7,#cc79a7,#cc79a7,0.2,0,#e69f00,#e69f00,#e69f00,A2ER0EVZ7E1Z8G,001,2020-12-11_20h50.40.630,change-localization,2020.1.2,Linux x86_64,60,,,,,,,,,
,,0.088423093,-0.211378336,1,0,0,1.131545,probe1,"[0.1,-0.2]",0,8,8,8,1,9,probe1,0.05,0.05,0.1,-0.2,#0072b2,#e69f00,#FFFFFF,-0.1,0.2,#f0e442,#f0e442,#f0e442,-0.2,0.1,#d55e00,#d55e00,#d55e00,0.2,0.2,#cc79a7,#cc79a7,#cc79a7,0.1,0.1,#56b4e9,#56b4e9,#56b4e9,A2ER0EVZ7E1Z8G,001,2020-12-11_20h50.40.630,change-localization,2020.1.2,Linux x86_64,60,,,,,,,,,
,,-0.095830202,-0.123496771,1,0,0,1.03238,probe1,"[-0.1,-0.1]",0,9,9,9,1,10,probe1,0.05,0.05,-0.1,-0.1,#4A4A4A,#f0e442,#FFFFFF,0,0.2,#cc79a7,#cc79a7,#cc79a7,0.2,-0.2,#e69f00,#e69f00,#e69f00,0.1,-0.2,#009e73,#009e73,#009e73,0.1,0.1,#d55e00,#d55e00,#d55e00,A2ER0EVZ7E1Z8G,001,2020-12-11_20h50.40.630,change-localization,2020.1.2,Linux x86_64,60,,,,,,,,,
,,-0.115274032,0.196577251,1,0,0,0.98276,probe2,"[-0.1,0.2]",,,,,,1,probe2,0.05,0.05,-0.2,0.2,#009e73,#009e73,,-0.1,0.2,#f0e442,#e69f00,,-0.1,0,#0072b2,#0072b2,,0,-0.2,#cc79a7,#cc79a7,,0,0.2,#d55e00,#d55e00,,A2ER0EVZ7E1Z8G,001,2020-12-11_20h50.40.630,change-localization,2020.1.2,Linux x86_64,60,c,3.15868,0,0,0,0,1,,
,,-0.079164028,-0.093894521,1,0,0,1.31553,probe3,"[-0.1,-0.1]",,,,,,2,probe5,0.05,0.05,0,0.1,#009e73,#009e73,,0.2,0.1,#4A4A4A,#4A4A4A,,-0.1,-0.1,#cc79a7,#cc79a7,,0.1,0.1,#d55e00,#d55e00,,0,-0.1,#56b4e9,#e69f00,,A2ER0EVZ7E1Z8G,001,2020-12-11_20h50.40.630,change-localization,2020.1.2,Linux x86_64,60,,,0,1,1,1,1,,
,,-0.096756061,0.089269201,1,0,0,1.94796,probe4,"[-0.1,0.1]",,,,,,3,probe4,0.05,0.05,0.1,-0.1,#56b4e9,#56b4e9,,0.2,0,#f0e442,#f0e442,,0.2,-0.1,#e69f00,#e69f00,,-0.1,0.1,#4A4A4A,#009e73,,-0.1,0.2,#d55e00,#d55e00,,A2ER0EVZ7E1Z8G,001,2020-12-11_20h50.40.630,change-localization,2020.1.2,Linux x86_64,60,,,0,2,2,2,1,,
,,0.196752866,-0.17807587,1,0,0,1.349045,probe4,"[0.2,-0.2]",,,,,,4,probe5,0.05,0.05,0.2,0,#56b4e9,#56b4e9,,-0.2,-0.2,#cc79a7,#cc79a7,,0,0.2,#4A4A4A,#4A4A4A,,0.2,-0.2,#e69f00,#e69f00,,-0.2,0,#f0e442,#009e73,,A2ER0EVZ7E1Z8G,001,2020-12-11_20h50.40.630,change-localization,2020.1.2,Linux x86_64,60,,,0,3,3,3,1,,
,,-0.184716225,0.094819625,1,0,0,2.58345,probe1,"[-0.2,0.1]",,,,,,5,probe3,0.05,0.05,-0.2,0.1,#4A4A4A,#4A4A4A,,0.2,0.2,#009e73,#009e73,,-0.1,-0.1,#0072b2,#f0e442,,0.2,0,#cc79a7,#cc79a7,,0.1,0.1,#e69f00,#e69f00,,A2ER0EVZ7E1Z8G,001,2020-12-11_20h50.40.630,change-localization,2020.1.2,Linux x86_64,60,,,0,4,4,4,1,,
,,0.004166603,0.203052739,1,0,0,1.26705,probe4,"[0,0.2]",,,,,,6,probe4,0.05,0.05,-0.1,0.1,#d55e00,#d55e00,,-0.2,0.2,#0072b2,#0072b2,,0,-0.1,#e69f00,#e69f00,,0,0.2,#56b4e9,#4A4A4A,,-0.2,-0.2,#009e73,#009e73,,A2ER0EVZ7E1Z8G,001,2020-12-11_20h50.40.630,change-localization,2020.1.2,Linux x86_64,60,,,0,5,5,5,1,,
,,0.184716225,0.194727103,1,0,0,1.38182,probe4,"[0.2,0.2]",,,,,,7,probe4,0.05,0.05,0.2,-0.1,#56b4e9,#56b4e9,,-0.1,-0.1,#e69f00,#e69f00,,-0.2,0.2,#009e73,#009e73,,0.2,0.2,#cc79a7,#4A4A4A,,0.2,-0.2,#d55e00,#d55e00,,A2ER0EVZ7E1Z8G,001,2020-12-11_20h50.40.630,change-localization,2020.1.2,Linux x86_64,60,,,0,6,6,6,1,,
,,-0.193975131,0.090194265,1,0,0,1.24982,probe1,"[-0.2,0.1]",,,,,,8,probe4,0.05,0.05,-0.2,0.1,#e69f00,#e69f00,,0.1,0.2,#cc79a7,#cc79a7,,0.2,0.1,#4A4A4A,#4A4A4A,,-0.2,0.2,#56b4e9,#d55e00,,0.2,-0.1,#0072b2,#0072b2,,A2ER0EVZ7E1Z8G,001,2020-12-11_20h50.40.630,change-localization,2020.1.2,Linux x86_64,60,,,0,7,7,7,1,,
,,0.20045646,0.185476422,1,0,0,1.964815,probe5,"[0.2,0.2]",,,,,,9,probe5,0.05,0.05,-0.1,0,#4A4A4A,#4A4A4A,,0.1,0.1,#56b4e9,#56b4e9,,-0.2,0.1,#009e73,#009e73,,0.2,0.1,#cc79a7,#cc79a7,,0.2,0.2,#d55e00,#f0e442,,A2ER0EVZ7E1Z8G,001,2020-12-11_20h50.40.630,change-localization,2020.1.2,Linux x86_64,60,,,0,8,8,8,1,,
,,0.005092462,0.081868649,1,0,0,1.73055,probe3,"[0,0.1]",,,,,,10,probe3,0.05,0.05,0.2,0.2,#f0e442,#f0e442,,0.1,-0.1,#e69f00,#e69f00,,0,0.1,#cc79a7,#4A4A4A,,-0.2,0.1,#56b4e9,#56b4e9,,0.2,0,#0072b2,#0072b2,,A2ER0EVZ7E1Z8G,001,2020-12-11_20h50.40.630,change-localization,2020.1.2,Linux x86_64,60,,,0,9,9,9,1,,
,,0.103237391,-0.201202552,1,0,0,1.14745,probe5,"[0.1,-0.2]",,,,,,11,probe5,0.05,0.05,0.2,0.2,#4A4A4A,#4A4A4A,,0.1,0.2,#0072b2,#0072b2,,0.1,-0.1,#cc79a7,#cc79a7,,0,-0.2,#009e73,#009e73,,0.1,-0.2,#f0e442,#d55e00,,A2ER0EVZ7E1Z8G,001,2020-12-11_20h50.40.630,change-localization,2020.1.2,Linux x86_64,60,,,0,10,10,10,1,,
,,0.093052546,0.006012956,1,0,0,1.49969,probe4,"[0.1,0]",,,,,,12,probe4,0.05,0.05,-0.1,-0.1,#009e73,#009e73,,-0.1,0,#56b4e9,#56b4e9,,-0.1,-0.2,#0072b2,#0072b2,,0.1,0,#d55e00,#f0e442,,0,-0.1,#cc79a7,#cc79a7,,A2ER0EVZ7E1Z8G,001,2020-12-11_20h50.40.630,change-localization,2020.1.2,Linux x86_64,60,,,0,11,11,11,1,,
,,-0.211567163,0.181776146,1,0,0,1.38198,probe4,"[-0.2,0.2]",,,,,,13,probe4,0.05,0.05,0,-0.1,#f0e442,#f0e442,,0.1,-0.1,#d55e00,#d55e00,,0.1,0.1,#0072b2,#0072b2,,-0.2,0.2,#cc79a7,#4A4A4A,,0.1,0.2,#009e73,#009e73,,A2ER0EVZ7E1Z8G,001,2020-12-11_20h50.40.630,change-localization,2020.1.2,Linux x86_64,60,,,0,12,12,12,1,,
,,0.088423093,0.203052739,1,0,0,1.18204,probe5,"[0.1,0.2]",,,,,,14,probe5,0.05,0.05,0,0.2,#cc79a7,#cc79a7,,0,-0.1,#4A4A4A,#4A4A4A,,-0.2,0,#56b4e9,#56b4e9,,0.1,0.1,#0072b2,#0072b2,,0.1,0.2,#009e73,#e69f00,,A2ER0EVZ7E1Z8G,001,2020-12-11_20h50.40.630,change-localization,2020.1.2,Linux x86_64,60,,,0,13,13,13,1,,
,,0.198604663,0.104070306,1,0,0,2.068375,probe3,"[0.2,0.1]",,,,,,15,probe3,0.05,0.05,0.2,0.2,#cc79a7,#cc79a7,,0,0.2,#56b4e9,#56b4e9,,0.2,0.1,#d55e00,#4A4A4A,,0.1,-0.1,#f0e442,#f0e442,,0.2,-0.1,#0072b2,#0072b2,,A2ER0EVZ7E1Z8G,001,2020-12-11_20h50.40.630,change-localization,2020.1.2,Linux x86_64,60,,,0,14,14,14,1,,
,,0.09027489,0.073543032,1,0,0,1.001285,probe3,"[0.1,0.1]",,,,,,16,probe3,0.05,0.05,-0.2,-0.1,#f0e442,#f0e442,,-0.2,0.2,#d55e00,#d55e00,,0.1,0.1,#009e73,#4A4A4A,,-0.2,0.1,#56b4e9,#56b4e9,,0,-0.1,#cc79a7,#cc79a7,,A2ER0EVZ7E1Z8G,001,2020-12-11_20h50.40.630,change-localization,2020.1.2,Linux x86_64,60,,,0,15,15,15,1,,
,,-0.002314727,0.103145242,1,0,0,1.36501,probe3,"[0,0.1]",,,,,,17,probe3,0.05,0.05,0.2,-0.1,#cc79a7,#cc79a7,,0,-0.2,#0072b2,#0072b2,,0,0.1,#4A4A4A,#e69f00,,-0.2,-0.1,#f0e442,#f0e442,,-0.1,-0.1,#009e73,#009e73,,A2ER0EVZ7E1Z8G,001,2020-12-11_20h50.40.630,change-localization,2020.1.2,Linux x86_64,60,,,0,16,16,16,1,,
,,0.202308257,-0.00693802,1,0,0,1.18822,probe3,"[0.2,0]",,,,,,18,probe3,0.05,0.05,-0.1,0.1,#d55e00,#d55e00,,-0.1,0.2,#e69f00,#e69f00,,0.2,0,#009e73,#0072b2,,0.1,-0.1,#cc79a7,#cc79a7,,-0.2,0.2,#4A4A4A,#4A4A4A,,A2ER0EVZ7E1Z8G,001,2020-12-11_20h50.40.630,change-localization,2020.1.2,Linux x86_64,60,,,0,17,17,17,1,,
,,-0.104163249,0.093894561,1,0,0,1.214965,probe3,"[-0.1,0.1]",,,,,,19,probe3,0.05,0.05,-0.1,0.2,#0072b2,#0072b2,,0,-0.1,#4A4A4A,#4A4A4A,,-0.1,0.1,#e69f00,#009e73,,0.2,0.1,#d55e00,#d55e00,,-0.2,0.1,#cc79a7,#cc79a7,,A2ER0EVZ7E1Z8G,001,2020-12-11_20h50.40.630,change-localization,2020.1.2,Linux x86_64,60,,,0,18,18,18,1,,
,,-0.002314727,-0.108695626,1,0,0,1.33236,probe4,"[0,-0.1]",,,,,,20,probe4,0.05,0.05,0.2,0,#56b4e9,#56b4e9,,-0.1,0.2,#009e73,#009e73,,-0.2,-0.2,#e69f00,#e69f00,,0,-0.1,#f0e442,#cc79a7,,-0.1,0,#4A4A4A,#4A4A4A,,A2ER0EVZ7E1Z8G,001,2020-12-11_20h50.40.630,change-localization,2020.1.2,Linux x86_64,60,,,0,19,19,19,1,,
,,0.199530602,-0.005087892,1,0,0,1.25033,probe3,"[0.2,0]",,,,,,21,probe3,0.05,0.05,-0.1,0.1,#0072b2,#0072b2,,-0.1,0.2,#009e73,#009e73,,0.2,0,#56b4e9,#4A4A4A,,-0.2,0.2,#f0e442,#f0e442,,0.2,0.1,#d55e00,#d55e00,,A2ER0EVZ7E1Z8G,001,2020-12-11_20h50.40.630,change-localization,2020.1.2,Linux x86_64,60,,,0,20,20,20,1,,
,,-0.001388788,-0.210453272,1,0,0,1.23208,probe5,"[0,-0.2]",,,,,,22,probe4,0.05,0.05,0.2,-0.1,#d55e00,#d55e00,,0.2,0,#56b4e9,#56b4e9,,0.1,-0.2,#cc79a7,#cc79a7,,-0.2,-0.1,#4A4A4A,#009e73,,0,-0.2,#e69f00,#e69f00,,A2ER0EVZ7E1Z8G,001,2020-12-11_20h50.40.630,change-localization,2020.1.2,Linux x86_64,60,,,0,21,21,21,1,,
,,-0.217122555,-0.202127616,1,0,0,2.21439,probe4,"[-0.2,-0.2]",,,,,,23,probe4,0.05,0.05,0.1,0.1,#56b4e9,#56b4e9,,-0.2,-0.1,#0072b2,#0072b2,,0.2,0,#d55e00,#d55e00,,-0.2,-0.2,#cc79a7,#009e73,,0.1,-0.2,#4A4A4A,#4A4A4A,,A2ER0EVZ7E1Z8G,001,2020-12-11_20h50.40.630,change-localization,2020.1.2,Linux x86_64,60,,,0,22,22,22,1,,
,,-0.099533796,-0.194727103,1,0,0,1.54815,probe1,"[-0.1,-0.2]",,,,,,24,probe2,0.05,0.05,-0.1,-0.2,#4A4A4A,#4A4A4A,,0.2,0.2,#d55e00,#e69f00,,0.1,-0.1,#f0e442,#f0e442,,0.1,0.1,#56b4e9,#56b4e9,,-0.2,0.1,#cc79a7,#cc79a7,,A2ER0EVZ7E1Z8G,001,2020-12-11_20h50.40.630,change-localization,2020.1.2,Linux x86_64,60,,,0,23,23,23,1,,
,,0.206011852,-0.022664189,1,0,0,1.58301,probe3,"[0.2,0]",,,,,,25,probe3,0.05,0.05,-0.2,-0.2,#f0e442,#f0e442,,-0.1,-0.1,#4A4A4A,#4A4A4A,,0.2,0,#d55e00,#cc79a7,,0,0.2,#0072b2,#0072b2,,-0.2,0.1,#009e73,#009e73,,A2ER0EVZ7E1Z8G,001,2020-12-11_20h50.40.630,change-localization,2020.1.2,Linux x86_64,60,,,0,24,24,24,1,,
,,-0.102311452,-0.203977823,1,0,0,1.149705,probe3,"[-0.1,-0.2]",,,,,,26,probe3,0.05,0.05,0.1,-0.1,#e69f00,#e69f00,,-0.2,0,#56b4e9,#56b4e9,,-0.1,-0.2,#009e73,#d55e00,,-0.2,-0.1,#4A4A4A,#4A4A4A,,0.1,0,#cc79a7,#cc79a7,,A2ER0EVZ7E1Z8G,001,2020-12-11_20h50.40.630,change-localization,2020.1.2,Linux x86_64,60,,,0,25,25,25,1,,
,,-0.210641305,-0.110545794,1,0,0,1.3155,probe5,"[-0.2,-0.1]",,,,,,27,probe5,0.05,0.05,-0.1,-0.2,#009e73,#009e73,,0.2,0,#cc79a7,#cc79a7,,-0.1,-0.1,#e69f00,#e69f00,,0.1,0.1,#d55e00,#d55e00,,-0.2,-0.1,#4A4A4A,#0072b2,,A2ER0EVZ7E1Z8G,001,2020-12-11_20h50.40.630,change-localization,2020.1.2,Linux x86_64,60,,,0,26,26,26,1,,
,,0.114348173,0.008788149,1,0,0,1.198755,probe4,"[0.1,0]",,,,,,28,probe5,0.05,0.05,-0.1,0.2,#009e73,#009e73,,-0.2,0.1,#56b4e9,#56b4e9,,0,-0.2,#d55e00,#d55e00,,0.1,0,#0072b2,#0072b2,,0.1,0.1,#f0e442,#e69f00,,A2ER0EVZ7E1Z8G,001,2020-12-11_20h50.40.630,change-localization,2020.1.2,Linux x86_64,60,,,0,27,27,27,1,,
,,-0.106940905,-0.192876975,1,0,0,1.48147,probe5,"[-0.1,-0.2]",,,,,,29,probe1,0.05,0.05,0.1,-0.1,#4A4A4A,#56b4e9,,-0.2,0.2,#e69f00,#e69f00,,-0.1,-0.1,#f0e442,#f0e442,,0.1,0.2,#0072b2,#0072b2,,-0.1,-0.2,#cc79a7,#cc79a7,,A2ER0EVZ7E1Z8G,001,2020-12-11_20h50.40.630,change-localization,2020.1.2,Linux x86_64,60,,,0,28,28,28,1,,
,,-0.100459655,-0.193802039,1,0,0,1.332005,probe2,"[-0.1,-0.2]",,,,,,30,probe2,0.05,0.05,0.1,0.2,#f0e442,#f0e442,,-0.1,-0.2,#d55e00,#4A4A4A,,0,-0.2,#cc79a7,#cc79a7,,0.1,-0.2,#0072b2,#0072b2,,-0.2,0,#009e73,#009e73,,A2ER0EVZ7E1Z8G,001,2020-12-11_20h50.40.630,change-localization,2020.1.2,Linux x86_64,60,,,0,29,29,29,1,,
,,0.094904343,-0.018038829,1,0,0,1.521805,probe2,"[0.1,0]",,,,,,31,probe5,0.05,0.05,0,-0.2,#d55e00,#d55e00,,0.1,0,#e69f00,#e69f00,,0.1,0.2,#f0e442,#f0e442,,-0.2,-0.1,#cc79a7,#cc79a7,,-0.1,-0.1,#009e73,#4A4A4A,,A2ER0EVZ7E1Z8G,001,2020-12-11_20h50.40.630,change-localization,2020.1.2,Linux x86_64,60,,,0,30,30,30,1,,
,,0.188419819,0.107770602,1,0,0,1.2983,probe3,"[0.2,0.1]",,,,,,32,probe3,0.05,0.05,0.2,0.2,#56b4e9,#56b4e9,,-0.1,-0.1,#009e73,#009e73,,0.2,0.1,#cc79a7,#0072b2,,-0.2,0.1,#4A4A4A,#4A4A4A,,-0.2,-0.1,#f0e442,#f0e442,,A2ER0EVZ7E1Z8G,001,2020-12-11_20h50.40.630,change-localization,2020.1.2,Linux x86_64,60,,,0,31,31,31,1,,
,,-0.112496297,0.082793713,1,0,0,1.084805,probe3,"[-0.1,0.1]",,,,,,33,probe3,0.05,0.05,-0.1,-0.1,#0072b2,#0072b2,,0.1,0.1,#cc79a7,#cc79a7,,-0.1,0.1,#f0e442,#009e73,,0,-0.2,#56b4e9,#56b4e9,,0.1,0.2,#e69f00,#e69f00,,A2ER0EVZ7E1Z8G,001,2020-12-11_20h50.40.630,change-localization,2020.1.2,Linux x86_64,60,,,0,32,32,32,1,,
,,-0.178234895,0.005087892,1,0,0,0.981575,probe5,"[-0.2,0]",,,,,,34,probe5,0.05,0.05,0.2,0.1,#e69f00,#e69f00,,-0.2,0.1,#cc79a7,#cc79a7,,0.1,-0.2,#0072b2,#0072b2,,0.2,-0.2,#d55e00,#d55e00,,-0.2,0,#56b4e9,#009e73,,A2ER0EVZ7E1Z8G,001,2020-12-11_20h50.40.630,change-localization,2020.1.2,Linux x86_64,60,,,0,33,33,33,1,,
,,0.199530602,-0.121646603,1,0,0,1.3153,probe2,"[0.2,-0.1]",,,,,,35,probe2,0.05,0.05,0.2,0,#56b4e9,#56b4e9,,0.2,-0.1,#e69f00,#009e73,,0.1,-0.1,#f0e442,#f0e442,,0,0.2,#d55e00,#d55e00,,0.1,0.2,#cc79a7,#cc79a7,,A2ER0EVZ7E1Z8G,001,2020-12-11_20h50.40.630,change-localization,2020.1.2,Linux x86_64,60,,,0,34,34,34,1,,
,,-0.094904264,-0.105920434,1,0,0,2.24763,probe4,"[-0.1,-0.1]",,,,,,36,probe3,0.05,0.05,0,0.1,#4A4A4A,#4A4A4A,,0.2,0.1,#009e73,#009e73,,-0.2,-0.1,#f0e442,#56b4e9,,-0.1,-0.1,#e69f00,#e69f00,,0.1,0,#0072b2,#0072b2,,A2ER0EVZ7E1Z8G,001,2020-12-11_20h50.40.630,change-localization,2020.1.2,Linux x86_64,60,,,0,35,35,35,1,,
,,0.105089188,-0.016188701,1,0,0,1.149905,probe5,"[0.1,0]",,,,,,37,probe5,0.05,0.05,-0.2,0.1,#e69f00,#e69f00,,0.1,0.1,#0072b2,#0072b2,,-0.2,0,#d55e00,#d55e00,,-0.1,0.2,#cc79a7,#cc79a7,,0.1,0,#009e73,#f0e442,,A2ER0EVZ7E1Z8G,001,2020-12-11_20h50.40.630,change-localization,2020.1.2,Linux x86_64,60,,,0,36,36,36,1,,
,,0.097682079,-0.00231266,1,0,0,1.418115,probe4,"[0.1,0]",,,,,,38,probe4,0.05,0.05,0.2,-0.2,#4A4A4A,#4A4A4A,,0.2,0,#0072b2,#0072b2,,0.1,-0.1,#e69f00,#e69f00,,0.1,0,#d55e00,#cc79a7,,0,-0.1,#009e73,#009e73,,A2ER0EVZ7E1Z8G,001,2020-12-11_20h50.40.630,change-localization,2020.1.2,Linux x86_64,60,,,0,37,37,37,1,,
,,-0.202308178,0.203977803,1,0,0,1.150135,probe4,"[-0.2,0.2]",,,,,,39,probe4,0.05,0.05,0.1,-0.1,#e69f00,#e69f00,,-0.2,-0.1,#cc79a7,#cc79a7,,0.2,0.1,#d55e00,#d55e00,,-0.2,0.2,#56b4e9,#f0e442,,0,-0.1,#0072b2,#0072b2,,A2ER0EVZ7E1Z8G,001,2020-12-11_20h50.40.630,change-localization,2020.1.2,Linux x86_64,60,,,0,38,38,38,1,,
,,-0.184716225,0.100370049,1,0,0,0.949315,probe1,"[-0.2,0.1]",,,,,,40,probe1,0.05,0.05,-0.2,0.1,#4A4A4A,#d55e00,,0.2,0.2,#009e73,#009e73,,-0.1,-0.1,#cc79a7,#cc79a7,,0.2,-0.2,#e69f00,#e69f00,,0.1,-0.1,#56b4e9,#56b4e9,,A2ER0EVZ7E1Z8G,001,2020-12-11_20h50.40.630,change-localization,2020.1.2,Linux x86_64,60,,,0,39,39,39,1,,
,,-0.086571217,-0.003237724,1,0,0,1.431905,probe4,"[-0.1,0]",,,,,,41,probe4,0.05,0.05,0.2,0.1,#009e73,#009e73,,-0.2,-0.1,#0072b2,#0072b2,,-0.2,-0.2,#56b4e9,#56b4e9,,-0.1,0,#f0e442,#cc79a7,,0,-0.2,#d55e00,#d55e00,,A2ER0EVZ7E1Z8G,001,2020-12-11_20h50.40.630,change-localization,2020.1.2,Linux x86_64,60,,,0,40,40,40,1,,
,,-0.098607858,-0.193802039,1,0,0,1.548905,probe1,"[-0.1,-0.2]",,,,,,42,probe4,0.05,0.05,-0.1,-0.2,#009e73,#009e73,,-0.1,0.1,#cc79a7,#cc79a7,,0.1,0.1,#56b4e9,#56b4e9,,0,-0.2,#e69f00,#d55e00,,-0.1,0,#0072b2,#0072b2,,A2ER0EVZ7E1Z8G,001,2020-12-11_20h50.40.630,change-localization,2020.1.2,Linux x86_64,60,,,0,41,41,41,1,,
,,-0.18101263,-0.218778928,1,0,0,1.696995,probe3,"[-0.2,-0.2]",,,,,,43,probe1,0.05,0.05,0.2,-0.1,#e69f00,#009e73,,0.1,0,#cc79a7,#cc79a7,,-0.2,-0.2,#f0e442,#f0e442,,0.2,-0.2,#56b4e9,#56b4e9,,-0.2,0.1,#4A4A4A,#4A4A4A,,A2ER0EVZ7E1Z8G,001,2020-12-11_20h50.40.630,change-localization,2020.1.2,Linux x86_64,60,,,0,42,42,42,1,,
,,-0.094904264,0.215078632,1,0,0,0.815685,probe1,"[-0.1,0.2]",,,,,,44,probe1,0.05,0.05,-0.1,0.2,#56b4e9,#e69f00,,0.2,0.1,#4A4A4A,#4A4A4A,,0.1,0,#cc79a7,#cc79a7,,0.1,0.2,#f0e442,#f0e442,,-0.1,-0.1,#d55e00,#d55e00,,A2ER0EVZ7E1Z8G,001,2020-12-11_20h50.40.630,change-localization,2020.1.2,Linux x86_64,60,,,0,43,43,43,1,,
,,0.018055042,-0.20305268,1,0,0,0.920135,probe5,"[0,-0.2]",,,,,,45,probe3,0.05,0.05,-0.2,0.2,#0072b2,#0072b2,,-0.2,-0.1,#56b4e9,#56b4e9,,-0.1,0.1,#f0e442,#e69f00,,-0.1,0.2,#d55e00,#d55e00,,0,-0.2,#cc79a7,#cc79a7,,A2ER0EVZ7E1Z8G,001,2020-12-11_20h50.40.630,change-localization,2020.1.2,Linux x86_64,60,,,0,44,44,44,1,,
,,0.204160055,0.003237764,1,0,0,1.46279,probe5,"[0.2,0]",,,,,,46,probe5,0.05,0.05,0.2,0.1,#0072b2,#0072b2,,0.1,0.2,#f0e442,#f0e442,,0.2,-0.2,#009e73,#009e73,,0.2,0.2,#4A4A4A,#4A4A4A,,0.2,0,#cc79a7,#e69f00,,A2ER0EVZ7E1Z8G,001,2020-12-11_20h50.40.630,change-localization,2020.1.2,Linux x86_64,60,,,0,45,45,45,1,,
,,0.205085993,0.191951911,1,0,0,1.3487,probe3,"[0.2,0.2]",,,,,,47,probe3,0.05,0.05,0,-0.1,#009e73,#009e73,,-0.2,0.2,#f0e442,#f0e442,,0.2,0.2,#56b4e9,#cc79a7,,-0.1,0.2,#4A4A4A,#4A4A4A,,-0.1,0.1,#e69f00,#e69f00,,A2ER0EVZ7E1Z8G,001,2020-12-11_20h50.40.630,change-localization,2020.1.2,Linux x86_64,60,,,0,46,46,46,1,,
,,-0.20693771,-0.111470858,1,0,0,0.83455,probe4,"[-0.2,-0.1]",,,,,,48,probe4,0.05,0.05,0.2,-0.2,#cc79a7,#cc79a7,,-0.1,0.1,#009e73,#009e73,,0.1,-0.2,#f0e442,#f0e442,,-0.2,-0.1,#d55e00,#0072b2,,-0.1,0,#56b4e9,#56b4e9,,A2ER0EVZ7E1Z8G,001,2020-12-11_20h50.40.630,change-localization,2020.1.2,Linux x86_64,60,,,0,47,47,47,1,,
,,0.010647853,-0.202127616,1,0,0,1.018995,probe1,"[0,-0.2]",,,,,,49,probe2,0.05,0.05,0,-0.2,#e69f00,#e69f00,,-0.2,0,#cc79a7,#0072b2,,-0.1,0.2,#f0e442,#f0e442,,0.1,0.2,#4A4A4A,#4A4A4A,,-0.1,-0.1,#56b4e9,#56b4e9,,A2ER0EVZ7E1Z8G,001,2020-12-11_20h50.40.630,change-localization,2020.1.2,Linux x86_64,60,,,0,48,48,48,1,,
,,0.094904343,-0.20305268,1,0,0,1.314935,probe3,"[0.1,-0.2]",,,,,,50,probe4,0.05,0.05,0.2,0.1,#0072b2,#0072b2,,0.1,0.1,#cc79a7,#cc79a7,,0.1,-0.2,#56b4e9,#56b4e9,,-0.1,0,#009e73,#e69f00,,0,0.1,#d55e00,#d55e00,,A2ER0EVZ7E1Z8G,001,2020-12-11_20h50.40.630,change-localization,2020.1.2,Linux x86_64,60,,,0,49,49,49,1,,
,,,,,,,,,,,,,,,,,,,,,,,,,,,,,,,,,,,,,,,,,,,,A2ER0EVZ7E1Z8G,001,2020-12-11_20h50.40.630,change-localization,2020.1.2,Linux x86_64,60,,,,,,,,c,6.445195
