key_resp.keys,key_resp.rt,mouse.x,mouse.y,mouse.leftButton,mouse.midButton,mouse.rightButton,mouse.time,mouse.clicked_name,mouse.clicked_pos,training.thisRepN,training.thisTrialN,training.thisN,training.thisIndex,training.ran,trial,answer,height,width,x1,y1,stim_color1,probe_color1,copy_color1,x2,y2,stim_color2,probe_color2,copy_color2,x3,y3,stim_color3,probe_color3,copy_color3,x4,y4,stim_color4,probe_color4,copy_color4,x5,y5,stim_color5,probe_color5,copy_color5,participant,session,date,expName,psychopyVersion,OS,frameRate,key_resp_2.keys,key_resp_2.rt,trials.thisRepN,trials.thisTrialN,trials.thisN,trials.thisIndex,trials.ran,completion_keys.keys,completion_keys.rt
c,16.410545,0.116206055,-0.112192383,1,0,0,0.9509,probe2,"[0.1,-0.1]",0,0,0,0,1,1,probe4,0.05,0.05,0.1,0.2,#0072b2,#0072b2,#0072b2,0.1,-0.1,#e69f00,#e69f00,#e69f00,-0.1,-0.2,#cc79a7,#cc79a7,#cc79a7,0.2,-0.1,#4A4A4A,#f0e442,#FFFFFF,0.2,0,#009e73,#009e73,#009e73,A2FARB7LA24AU8,001,2020-12-12_09h18.06.016,change-localization,2020.1.2,MacIntel,60,,,,,,,,,
,,0.088530273,0.003139648,1,0,0,2.417105,probe3,"[0.1,0]",0,1,1,1,1,2,probe1,0.05,0.05,0.2,0,#d55e00,#009e73,#FFFFFF,0.2,-0.1,#e69f00,#e69f00,#e69f00,0.1,0,#4A4A4A,#4A4A4A,#4A4A4A,-0.1,0.1,#56b4e9,#56b4e9,#56b4e9,-0.1,0,#cc79a7,#cc79a7,#cc79a7,A2FARB7LA24AU8,001,2020-12-12_09h18.06.016,change-localization,2020.1.2,MacIntel,60,,,,,,,,,
,,-0.187353516,-0.196870117,1,0,0,1.217405,probe1,"[-0.2,-0.2]",0,2,2,2,1,3,probe1,0.05,0.05,-0.2,-0.2,#f0e442,#009e73,#FFFFFF,0.2,-0.1,#d55e00,#d55e00,#d55e00,-0.2,0,#4A4A4A,#4A4A4A,#4A4A4A,-0.1,-0.1,#0072b2,#0072b2,#0072b2,0,-0.1,#56b4e9,#56b4e9,#56b4e9,A2FARB7LA24AU8,001,2020-12-12_09h18.06.016,change-localization,2020.1.2,MacIntel,60,,,,,,,,,
,,0.20355957,0.205722656,1,0,0,1.23354,probe1,"[0.2,0.2]",0,3,3,3,1,4,probe1,0.05,0.05,0.2,0.2,#d55e00,#56b4e9,#FFFFFF,-0.2,0.2,#f0e442,#f0e442,#f0e442,0.2,-0.2,#0072b2,#0072b2,#0072b2,-0.2,0,#cc79a7,#cc79a7,#cc79a7,-0.2,0.1,#4A4A4A,#4A4A4A,#4A4A4A,A2FARB7LA24AU8,001,2020-12-12_09h18.06.016,change-localization,2020.1.2,MacIntel,60,,,,,,,,,
,,0.006787109,0.092998047,1,0,0,1.1173,probe3,"[0,0.1]",0,4,4,4,1,5,probe3,0.05,0.05,-0.2,0.1,#56b4e9,#56b4e9,#56b4e9,0,0.2,#009e73,#009e73,#009e73,0,0.1,#0072b2,#cc79a7,#FFFFFF,-0.1,-0.1,#4A4A4A,#4A4A4A,#4A4A4A,0.2,0,#f0e442,#f0e442,#f0e442,A2FARB7LA24AU8,001,2020-12-12_09h18.06.016,change-localization,2020.1.2,MacIntel,60,,,,,,,,,
,,0.013945312,-0.199628906,1,0,0,1.35137,probe4,"[0,-0.2]",0,5,5,5,1,6,probe5,0.05,0.05,-0.1,0.1,#f0e442,#f0e442,#f0e442,0,0.1,#009e73,#009e73,#009e73,-0.2,0,#4A4A4A,#4A4A4A,#4A4A4A,0,-0.2,#d55e00,#d55e00,#d55e00,0.1,0,#cc79a7,#0072b2,#FFFFFF,A2FARB7LA24AU8,001,2020-12-12_09h18.06.016,change-localization,2020.1.2,MacIntel,60,,,,,,,,,
,,0.094189453,0.202045898,1,0,0,1.15151,probe2,"[0.1,0.2]",0,6,6,6,1,7,probe2,0.05,0.05,-0.2,-0.2,#4A4A4A,#4A4A4A,#4A4A4A,0.1,0.2,#0072b2,#d55e00,#FFFFFF,-0.1,-0.2,#f0e442,#f0e442,#f0e442,-0.2,0.2,#009e73,#009e73,#009e73,0.2,0.2,#e69f00,#e69f00,#e69f00,A2FARB7LA24AU8,001,2020-12-12_09h18.06.016,change-localization,2020.1.2,MacIntel,60,,,,,,,,,
,,0.114091797,-0.206103516,1,0,0,1.901085,probe1,"[0.1,-0.2]",0,7,7,7,1,8,probe1,0.05,0.05,0.1,-0.2,#009e73,#f0e442,#FFFFFF,-0.1,0,#d55e00,#d55e00,#d55e00,-0.1,0.1,#4A4A4A,#4A4A4A,#4A4A4A,-0.2,0,#cc79a7,#cc79a7,#cc79a7,0.2,0,#e69f00,#e69f00,#e69f00,A2FARB7LA24AU8,001,2020-12-12_09h18.06.016,change-localization,2020.1.2,MacIntel,60,,,,,,,,,
,,0.180112305,0.19956543,1,0,0,2.76825,probe4,"[0.2,0.2]",0,8,8,8,1,9,probe1,0.05,0.05,0.1,-0.2,#0072b2,#e69f00,#FFFFFF,-0.1,0.2,#f0e442,#f0e442,#f0e442,-0.2,0.1,#d55e00,#d55e00,#d55e00,0.2,0.2,#cc79a7,#cc79a7,#cc79a7,0.1,0.1,#56b4e9,#56b4e9,#56b4e9,A2FARB7LA24AU8,001,2020-12-12_09h18.06.016,change-localization,2020.1.2,MacIntel,60,,,,,,,,,
,,-0.095600586,-0.100683594,1,0,0,1.20018,probe1,"[-0.1,-0.1]",0,9,9,9,1,10,probe1,0.05,0.05,-0.1,-0.1,#4A4A4A,#f0e442,#FFFFFF,0,0.2,#cc79a7,#cc79a7,#cc79a7,0.2,-0.2,#e69f00,#e69f00,#e69f00,0.1,-0.2,#009e73,#009e73,#009e73,0.1,0.1,#d55e00,#d55e00,#d55e00,A2FARB7LA24AU8,001,2020-12-12_09h18.06.016,change-localization,2020.1.2,MacIntel,60,,,,,,,,,
,,-0.179848633,0.203374023,1,0,0,1.40025,probe1,"[-0.2,0.2]",,,,,,1,probe2,0.05,0.05,-0.2,0.2,#009e73,#009e73,,-0.1,0.2,#f0e442,#e69f00,,-0.1,0,#0072b2,#0072b2,,0,-0.2,#cc79a7,#cc79a7,,0,0.2,#d55e00,#d55e00,,A2FARB7LA24AU8,001,2020-12-12_09h18.06.016,change-localization,2020.1.2,MacIntel,60,c,3.314965,0,0,0,0,1,,
,,-0.000483398,-0.085507813,1,0,0,1.0835,probe5,"[0,-0.1]",,,,,,2,probe5,0.05,0.05,0,0.1,#009e73,#009e73,,0.2,0.1,#4A4A4A,#4A4A4A,,-0.1,-0.1,#cc79a7,#cc79a7,,0.1,0.1,#d55e00,#d55e00,,0,-0.1,#56b4e9,#e69f00,,A2FARB7LA24AU8,001,2020-12-12_09h18.06.016,change-localization,2020.1.2,MacIntel,60,,,0,1,1,1,1,,
,,-0.102714844,0.214887695,1,0,0,1.28454,probe5,"[-0.1,0.2]",,,,,,3,probe4,0.05,0.05,0.1,-0.1,#56b4e9,#56b4e9,,0.2,0,#f0e442,#f0e442,,0.2,-0.1,#e69f00,#e69f00,,-0.1,0.1,#4A4A4A,#009e73,,-0.1,0.2,#d55e00,#d55e00,,A2FARB7LA24AU8,001,2020-12-12_09h18.06.016,change-localization,2020.1.2,MacIntel,60,,,0,2,2,2,1,,
,,0.210717773,-0.015664062,1,0,0,1.3686,probe1,"[0.2,0]",,,,,,4,probe5,0.05,0.05,0.2,0,#56b4e9,#56b4e9,,-0.2,-0.2,#cc79a7,#cc79a7,,0,0.2,#4A4A4A,#4A4A4A,,0.2,-0.2,#e69f00,#e69f00,,-0.2,0,#f0e442,#009e73,,A2FARB7LA24AU8,001,2020-12-12_09h18.06.016,change-localization,2020.1.2,MacIntel,60,,,0,3,3,3,1,,
,,-0.09746582,-0.105810547,1,0,0,1.199925,probe3,"[-0.1,-0.1]",,,,,,5,probe3,0.05,0.05,-0.2,0.1,#4A4A4A,#4A4A4A,,0.2,0.2,#009e73,#009e73,,-0.1,-0.1,#0072b2,#f0e442,,0.2,0,#cc79a7,#cc79a7,,0.1,0.1,#e69f00,#e69f00,,A2FARB7LA24AU8,001,2020-12-12_09h18.06.016,change-localization,2020.1.2,MacIntel,60,,,0,4,4,4,1,,
,,0.013110352,0.190644531,1,0,0,1.134305,probe4,"[0,0.2]",,,,,,6,probe4,0.05,0.05,-0.1,0.1,#d55e00,#d55e00,,-0.2,0.2,#0072b2,#0072b2,,0,-0.1,#e69f00,#e69f00,,0,0.2,#56b4e9,#4A4A4A,,-0.2,-0.2,#009e73,#009e73,,A2FARB7LA24AU8,001,2020-12-12_09h18.06.016,change-localization,2020.1.2,MacIntel,60,,,0,5,5,5,1,,
,,0.210991211,0.190874023,1,0,0,1.31783,probe4,"[0.2,0.2]",,,,,,7,probe4,0.05,0.05,0.2,-0.1,#56b4e9,#56b4e9,,-0.1,-0.1,#e69f00,#e69f00,,-0.2,0.2,#009e73,#009e73,,0.2,0.2,#cc79a7,#4A4A4A,,0.2,-0.2,#d55e00,#d55e00,,A2FARB7LA24AU8,001,2020-12-12_09h18.06.016,change-localization,2020.1.2,MacIntel,60,,,0,6,6,6,1,,
,,-0.189272461,0.197905273,1,0,0,1.151645,probe4,"[-0.2,0.2]",,,,,,8,probe4,0.05,0.05,-0.2,0.1,#e69f00,#e69f00,,0.1,0.2,#cc79a7,#cc79a7,,0.2,0.1,#4A4A4A,#4A4A4A,,-0.2,0.2,#56b4e9,#d55e00,,0.2,-0.1,#0072b2,#0072b2,,A2FARB7LA24AU8,001,2020-12-12_09h18.06.016,change-localization,2020.1.2,MacIntel,60,,,0,7,7,7,1,,
,,0.206464844,0.206176758,1,0,0,0.882465,probe5,"[0.2,0.2]",,,,,,9,probe5,0.05,0.05,-0.1,0,#4A4A4A,#4A4A4A,,0.1,0.1,#56b4e9,#56b4e9,,-0.2,0.1,#009e73,#009e73,,0.2,0.1,#cc79a7,#cc79a7,,0.2,0.2,#d55e00,#f0e442,,A2FARB7LA24AU8,001,2020-12-12_09h18.06.016,change-localization,2020.1.2,MacIntel,60,,,0,8,8,8,1,,
,,-0.007583008,0.100498047,1,0,0,0.784495,probe3,"[0,0.1]",,,,,,10,probe3,0.05,0.05,0.2,0.2,#f0e442,#f0e442,,0.1,-0.1,#e69f00,#e69f00,,0,0.1,#cc79a7,#4A4A4A,,-0.2,0.1,#56b4e9,#56b4e9,,0.2,0,#0072b2,#0072b2,,A2FARB7LA24AU8,001,2020-12-12_09h18.06.016,change-localization,2020.1.2,MacIntel,60,,,0,9,9,9,1,,
,,-0.008476562,-0.196108398,1,0,0,2.134125,probe4,"[0,-0.2]",,,,,,11,probe5,0.05,0.05,0.2,0.2,#4A4A4A,#4A4A4A,,0.1,0.2,#0072b2,#0072b2,,0.1,-0.1,#cc79a7,#cc79a7,,0,-0.2,#009e73,#009e73,,0.1,-0.2,#f0e442,#d55e00,,A2FARB7LA24AU8,001,2020-12-12_09h18.06.016,change-localization,2020.1.2,MacIntel,60,,,0,10,10,10,1,,
,,0.098579102,0.001948242,1,0,0,1.23534,probe4,"[0.1,0]",,,,,,12,probe4,0.05,0.05,-0.1,-0.1,#009e73,#009e73,,-0.1,0,#56b4e9,#56b4e9,,-0.1,-0.2,#0072b2,#0072b2,,0.1,0,#d55e00,#f0e442,,0,-0.1,#cc79a7,#cc79a7,,A2FARB7LA24AU8,001,2020-12-12_09h18.06.016,change-localization,2020.1.2,MacIntel,60,,,0,11,11,11,1,,
,,-0.201171875,0.194257812,1,0,0,0.997805,probe4,"[-0.2,0.2]",,,,,,13,probe4,0.05,0.05,0,-0.1,#f0e442,#f0e442,,0.1,-0.1,#d55e00,#d55e00,,0.1,0.1,#0072b2,#0072b2,,-0.2,0.2,#cc79a7,#4A4A4A,,0.1,0.2,#009e73,#009e73,,A2FARB7LA24AU8,001,2020-12-12_09h18.06.016,change-localization,2020.1.2,MacIntel,60,,,0,12,12,12,1,,
,,0.09965332,0.18890625,1,0,0,0.950455,probe5,"[0.1,0.2]",,,,,,14,probe5,0.05,0.05,0,0.2,#cc79a7,#cc79a7,,0,-0.1,#4A4A4A,#4A4A4A,,-0.2,0,#56b4e9,#56b4e9,,0.1,0.1,#0072b2,#0072b2,,0.1,0.2,#009e73,#e69f00,,A2FARB7LA24AU8,001,2020-12-12_09h18.06.016,change-localization,2020.1.2,MacIntel,60,,,0,13,13,13,1,,
,,0.184960938,0.196381836,1,0,0,1.400915,probe1,"[0.2,0.2]",,,,,,15,probe3,0.05,0.05,0.2,0.2,#cc79a7,#cc79a7,,0,0.2,#56b4e9,#56b4e9,,0.2,0.1,#d55e00,#4A4A4A,,0.1,-0.1,#f0e442,#f0e442,,0.2,-0.1,#0072b2,#0072b2,,A2FARB7LA24AU8,001,2020-12-12_09h18.06.016,change-localization,2020.1.2,MacIntel,60,,,0,14,14,14,1,,
,,0.105336914,0.096176758,1,0,0,1.15064,probe3,"[0.1,0.1]",,,,,,16,probe3,0.05,0.05,-0.2,-0.1,#f0e442,#f0e442,,-0.2,0.2,#d55e00,#d55e00,,0.1,0.1,#009e73,#4A4A4A,,-0.2,0.1,#56b4e9,#56b4e9,,0,-0.1,#cc79a7,#cc79a7,,A2FARB7LA24AU8,001,2020-12-12_09h18.06.016,change-localization,2020.1.2,MacIntel,60,,,0,15,15,15,1,,
,,-0.003481445,0.119165039,1,0,0,0.867455,probe3,"[0,0.1]",,,,,,17,probe3,0.05,0.05,0.2,-0.1,#cc79a7,#cc79a7,,0,-0.2,#0072b2,#0072b2,,0,0.1,#4A4A4A,#e69f00,,-0.2,-0.1,#f0e442,#f0e442,,-0.1,-0.1,#009e73,#009e73,,A2FARB7LA24AU8,001,2020-12-12_09h18.06.016,change-localization,2020.1.2,MacIntel,60,,,0,16,16,16,1,,
,,0.192817383,0.008115234,1,0,0,0.74977,probe3,"[0.2,0]",,,,,,18,probe3,0.05,0.05,-0.1,0.1,#d55e00,#d55e00,,-0.1,0.2,#e69f00,#e69f00,,0.2,0,#009e73,#0072b2,,0.1,-0.1,#cc79a7,#cc79a7,,-0.2,0.2,#4A4A4A,#4A4A4A,,A2FARB7LA24AU8,001,2020-12-12_09h18.06.016,change-localization,2020.1.2,MacIntel,60,,,0,17,17,17,1,,
,,-0.100717773,0.101220703,1,0,0,2.100795,probe3,"[-0.1,0.1]",,,,,,19,probe3,0.05,0.05,-0.1,0.2,#0072b2,#0072b2,,0,-0.1,#4A4A4A,#4A4A4A,,-0.1,0.1,#e69f00,#009e73,,0.2,0.1,#d55e00,#d55e00,,-0.2,0.1,#cc79a7,#cc79a7,,A2FARB7LA24AU8,001,2020-12-12_09h18.06.016,change-localization,2020.1.2,MacIntel,60,,,0,18,18,18,1,,
,,-0.195844727,-0.191704102,1,0,0,2.634175,probe3,"[-0.2,-0.2]",,,,,,20,probe4,0.05,0.05,0.2,0,#56b4e9,#56b4e9,,-0.1,0.2,#009e73,#009e73,,-0.2,-0.2,#e69f00,#e69f00,,0,-0.1,#f0e442,#cc79a7,,-0.1,0,#4A4A4A,#4A4A4A,,A2FARB7LA24AU8,001,2020-12-12_09h18.06.016,change-localization,2020.1.2,MacIntel,60,,,0,19,19,19,1,,
,,0.194624023,2.44141E-05,1,0,0,2.417945,probe3,"[0.2,0]",,,,,,21,probe3,0.05,0.05,-0.1,0.1,#0072b2,#0072b2,,-0.1,0.2,#009e73,#009e73,,0.2,0,#56b4e9,#4A4A4A,,-0.2,0.2,#f0e442,#f0e442,,0.2,0.1,#d55e00,#d55e00,,A2FARB7LA24AU8,001,2020-12-12_09h18.06.016,change-localization,2020.1.2,MacIntel,60,,,0,20,20,20,1,,
,,-0.205092773,-0.088725586,1,0,0,1.383475,probe4,"[-0.2,-0.1]",,,,,,22,probe4,0.05,0.05,0.2,-0.1,#d55e00,#d55e00,,0.2,0,#56b4e9,#56b4e9,,0.1,-0.2,#cc79a7,#cc79a7,,-0.2,-0.1,#4A4A4A,#009e73,,0,-0.2,#e69f00,#e69f00,,A2FARB7LA24AU8,001,2020-12-12_09h18.06.016,change-localization,2020.1.2,MacIntel,60,,,0,21,21,21,1,,
,,-0.202231445,-0.114526367,1,0,0,1.55155,probe2,"[-0.2,-0.1]",,,,,,23,probe4,0.05,0.05,0.1,0.1,#56b4e9,#56b4e9,,-0.2,-0.1,#0072b2,#0072b2,,0.2,0,#d55e00,#d55e00,,-0.2,-0.2,#cc79a7,#009e73,,0.1,-0.2,#4A4A4A,#4A4A4A,,A2FARB7LA24AU8,001,2020-12-12_09h18.06.016,change-localization,2020.1.2,MacIntel,60,,,0,22,22,22,1,,
,,0.205004883,0.188041992,1,0,0,1.033605,probe2,"[0.2,0.2]",,,,,,24,probe2,0.05,0.05,-0.1,-0.2,#4A4A4A,#4A4A4A,,0.2,0.2,#d55e00,#e69f00,,0.1,-0.1,#f0e442,#f0e442,,0.1,0.1,#56b4e9,#56b4e9,,-0.2,0.1,#cc79a7,#cc79a7,,A2FARB7LA24AU8,001,2020-12-12_09h18.06.016,change-localization,2020.1.2,MacIntel,60,,,0,23,23,23,1,,
,,0.207817383,0.002246094,1,0,0,0.98394,probe3,"[0.2,0]",,,,,,25,probe3,0.05,0.05,-0.2,-0.2,#f0e442,#f0e442,,-0.1,-0.1,#4A4A4A,#4A4A4A,,0.2,0,#d55e00,#cc79a7,,0,0.2,#0072b2,#0072b2,,-0.2,0.1,#009e73,#009e73,,A2FARB7LA24AU8,001,2020-12-12_09h18.06.016,change-localization,2020.1.2,MacIntel,60,,,0,24,24,24,1,,
,,-0.108808594,-0.19262207,1,0,0,1.03385,probe3,"[-0.1,-0.2]",,,,,,26,probe3,0.05,0.05,0.1,-0.1,#e69f00,#e69f00,,-0.2,0,#56b4e9,#56b4e9,,-0.1,-0.2,#009e73,#d55e00,,-0.2,-0.1,#4A4A4A,#4A4A4A,,0.1,0,#cc79a7,#cc79a7,,A2FARB7LA24AU8,001,2020-12-12_09h18.06.016,change-localization,2020.1.2,MacIntel,60,,,0,25,25,25,1,,
,,-0.206137695,-0.096767578,1,0,0,2.08602,probe5,"[-0.2,-0.1]",,,,,,27,probe5,0.05,0.05,-0.1,-0.2,#009e73,#009e73,,0.2,0,#cc79a7,#cc79a7,,-0.1,-0.1,#e69f00,#e69f00,,0.1,0.1,#d55e00,#d55e00,,-0.2,-0.1,#4A4A4A,#0072b2,,A2FARB7LA24AU8,001,2020-12-12_09h18.06.016,change-localization,2020.1.2,MacIntel,60,,,0,26,26,26,1,,
,,-0.004902344,-0.207880859,1,0,0,1.218955,probe3,"[0,-0.2]",,,,,,28,probe5,0.05,0.05,-0.1,0.2,#009e73,#009e73,,-0.2,0.1,#56b4e9,#56b4e9,,0,-0.2,#d55e00,#d55e00,,0.1,0,#0072b2,#0072b2,,0.1,0.1,#f0e442,#e69f00,,A2FARB7LA24AU8,001,2020-12-12_09h18.06.016,change-localization,2020.1.2,MacIntel,60,,,0,27,27,27,1,,
,,-0.095483398,-0.199165039,1,0,0,1.617935,probe5,"[-0.1,-0.2]",,,,,,29,probe1,0.05,0.05,0.1,-0.1,#4A4A4A,#56b4e9,,-0.2,0.2,#e69f00,#e69f00,,-0.1,-0.1,#f0e442,#f0e442,,0.1,0.2,#0072b2,#0072b2,,-0.1,-0.2,#cc79a7,#cc79a7,,A2FARB7LA24AU8,001,2020-12-12_09h18.06.016,change-localization,2020.1.2,MacIntel,60,,,0,28,28,28,1,,
,,-0.105444336,-0.199858398,1,0,0,2.617565,probe2,"[-0.1,-0.2]",,,,,,30,probe2,0.05,0.05,0.1,0.2,#f0e442,#f0e442,,-0.1,-0.2,#d55e00,#4A4A4A,,0,-0.2,#cc79a7,#cc79a7,,0.1,-0.2,#0072b2,#0072b2,,-0.2,0,#009e73,#009e73,,A2FARB7LA24AU8,001,2020-12-12_09h18.06.016,change-localization,2020.1.2,MacIntel,60,,,0,29,29,29,1,,
,,-0.006606445,-0.200639648,1,0,0,1.2676,probe1,"[0,-0.2]",,,,,,31,probe5,0.05,0.05,0,-0.2,#d55e00,#d55e00,,0.1,0,#e69f00,#e69f00,,0.1,0.2,#f0e442,#f0e442,,-0.2,-0.1,#cc79a7,#cc79a7,,-0.1,-0.1,#009e73,#4A4A4A,,A2FARB7LA24AU8,001,2020-12-12_09h18.06.016,change-localization,2020.1.2,MacIntel,60,,,0,30,30,30,1,,
,,0.196616211,0.094755859,1,0,0,1.067445,probe3,"[0.2,0.1]",,,,,,32,probe3,0.05,0.05,0.2,0.2,#56b4e9,#56b4e9,,-0.1,-0.1,#009e73,#009e73,,0.2,0.1,#cc79a7,#0072b2,,-0.2,0.1,#4A4A4A,#4A4A4A,,-0.2,-0.1,#f0e442,#f0e442,,A2FARB7LA24AU8,001,2020-12-12_09h18.06.016,change-localization,2020.1.2,MacIntel,60,,,0,31,31,31,1,,
,,-0.10387207,0.105737305,1,0,0,1.5686,probe3,"[-0.1,0.1]",,,,,,33,probe3,0.05,0.05,-0.1,-0.1,#0072b2,#0072b2,,0.1,0.1,#cc79a7,#cc79a7,,-0.1,0.1,#f0e442,#009e73,,0,-0.2,#56b4e9,#56b4e9,,0.1,0.2,#e69f00,#e69f00,,A2FARB7LA24AU8,001,2020-12-12_09h18.06.016,change-localization,2020.1.2,MacIntel,60,,,0,32,32,32,1,,
,,0.08644043,-0.205053711,1,0,0,1.435385,probe3,"[0.1,-0.2]",,,,,,34,probe5,0.05,0.05,0.2,0.1,#e69f00,#e69f00,,-0.2,0.1,#cc79a7,#cc79a7,,0.1,-0.2,#0072b2,#0072b2,,0.2,-0.2,#d55e00,#d55e00,,-0.2,0,#56b4e9,#009e73,,A2FARB7LA24AU8,001,2020-12-12_09h18.06.016,change-localization,2020.1.2,MacIntel,60,,,0,33,33,33,1,,
,,0.210708008,-0.014741211,1,0,0,1.46779,probe1,"[0.2,0]",,,,,,35,probe2,0.05,0.05,0.2,0,#56b4e9,#56b4e9,,0.2,-0.1,#e69f00,#009e73,,0.1,-0.1,#f0e442,#f0e442,,0,0.2,#d55e00,#d55e00,,0.1,0.2,#cc79a7,#cc79a7,,A2FARB7LA24AU8,001,2020-12-12_09h18.06.016,change-localization,2020.1.2,MacIntel,60,,,0,34,34,34,1,,
,,-0.092587891,-0.09871582,1,0,0,1.550485,probe4,"[-0.1,-0.1]",,,,,,36,probe3,0.05,0.05,0,0.1,#4A4A4A,#4A4A4A,,0.2,0.1,#009e73,#009e73,,-0.2,-0.1,#f0e442,#56b4e9,,-0.1,-0.1,#e69f00,#e69f00,,0.1,0,#0072b2,#0072b2,,A2FARB7LA24AU8,001,2020-12-12_09h18.06.016,change-localization,2020.1.2,MacIntel,60,,,0,35,35,35,1,,
,,0.102495117,0.002280273,1,0,0,2.41771,probe5,"[0.1,0]",,,,,,37,probe5,0.05,0.05,-0.2,0.1,#e69f00,#e69f00,,0.1,0.1,#0072b2,#0072b2,,-0.2,0,#d55e00,#d55e00,,-0.1,0.2,#cc79a7,#cc79a7,,0.1,0,#009e73,#f0e442,,A2FARB7LA24AU8,001,2020-12-12_09h18.06.016,change-localization,2020.1.2,MacIntel,60,,,0,36,36,36,1,,
,,0.198696289,-0.196113281,1,0,0,1.248885,probe1,"[0.2,-0.2]",,,,,,38,probe4,0.05,0.05,0.2,-0.2,#4A4A4A,#4A4A4A,,0.2,0,#0072b2,#0072b2,,0.1,-0.1,#e69f00,#e69f00,,0.1,0,#d55e00,#cc79a7,,0,-0.1,#009e73,#009e73,,A2FARB7LA24AU8,001,2020-12-12_09h18.06.016,change-localization,2020.1.2,MacIntel,60,,,0,37,37,37,1,,
,,-0.200366211,0.204892578,1,0,0,1.151685,probe4,"[-0.2,0.2]",,,,,,39,probe4,0.05,0.05,0.1,-0.1,#e69f00,#e69f00,,-0.2,-0.1,#cc79a7,#cc79a7,,0.2,0.1,#d55e00,#d55e00,,-0.2,0.2,#56b4e9,#f0e442,,0,-0.1,#0072b2,#0072b2,,A2FARB7LA24AU8,001,2020-12-12_09h18.06.016,change-localization,2020.1.2,MacIntel,60,,,0,38,38,38,1,,
,,-0.202329102,0.104995117,1,0,0,1.23396,probe1,"[-0.2,0.1]",,,,,,40,probe1,0.05,0.05,-0.2,0.1,#4A4A4A,#d55e00,,0.2,0.2,#009e73,#009e73,,-0.1,-0.1,#cc79a7,#cc79a7,,0.2,-0.2,#e69f00,#e69f00,,0.1,-0.1,#56b4e9,#56b4e9,,A2FARB7LA24AU8,001,2020-12-12_09h18.06.016,change-localization,2020.1.2,MacIntel,60,,,0,39,39,39,1,,
,,-0.099287109,-0.005791016,1,0,0,1.034165,probe4,"[-0.1,0]",,,,,,41,probe4,0.05,0.05,0.2,0.1,#009e73,#009e73,,-0.2,-0.1,#0072b2,#0072b2,,-0.2,-0.2,#56b4e9,#56b4e9,,-0.1,0,#f0e442,#cc79a7,,0,-0.2,#d55e00,#d55e00,,A2FARB7LA24AU8,001,2020-12-12_09h18.06.016,change-localization,2020.1.2,MacIntel,60,,,0,40,40,40,1,,
,,-0.00769043,-0.20109375,1,0,0,1.201055,probe4,"[0,-0.2]",,,,,,42,probe4,0.05,0.05,-0.1,-0.2,#009e73,#009e73,,-0.1,0.1,#cc79a7,#cc79a7,,0.1,0.1,#56b4e9,#56b4e9,,0,-0.2,#e69f00,#d55e00,,-0.1,0,#0072b2,#0072b2,,A2FARB7LA24AU8,001,2020-12-12_09h18.06.016,change-localization,2020.1.2,MacIntel,60,,,0,41,41,41,1,,
,,0.1921875,-0.100996094,1,0,0,1.0505,probe1,"[0.2,-0.1]",,,,,,43,probe1,0.05,0.05,0.2,-0.1,#e69f00,#009e73,,0.1,0,#cc79a7,#cc79a7,,-0.2,-0.2,#f0e442,#f0e442,,0.2,-0.2,#56b4e9,#56b4e9,,-0.2,0.1,#4A4A4A,#4A4A4A,,A2FARB7LA24AU8,001,2020-12-12_09h18.06.016,change-localization,2020.1.2,MacIntel,60,,,0,42,42,42,1,,
,,-0.090742188,0.195043945,1,0,0,1.268605,probe1,"[-0.1,0.2]",,,,,,44,probe1,0.05,0.05,-0.1,0.2,#56b4e9,#e69f00,,0.2,0.1,#4A4A4A,#4A4A4A,,0.1,0,#cc79a7,#cc79a7,,0.1,0.2,#f0e442,#f0e442,,-0.1,-0.1,#d55e00,#d55e00,,A2FARB7LA24AU8,001,2020-12-12_09h18.06.016,change-localization,2020.1.2,MacIntel,60,,,0,43,43,43,1,,
,,-0.087998047,0.105483398,1,0,0,1.133625,probe3,"[-0.1,0.1]",,,,,,45,probe3,0.05,0.05,-0.2,0.2,#0072b2,#0072b2,,-0.2,-0.1,#56b4e9,#56b4e9,,-0.1,0.1,#f0e442,#e69f00,,-0.1,0.2,#d55e00,#d55e00,,0,-0.2,#cc79a7,#cc79a7,,A2FARB7LA24AU8,001,2020-12-12_09h18.06.016,change-localization,2020.1.2,MacIntel,60,,,0,44,44,44,1,,
,,0.201425781,0.212724609,1,0,0,1.184845,probe4,"[0.2,0.2]",,,,,,46,probe5,0.05,0.05,0.2,0.1,#0072b2,#0072b2,,0.1,0.2,#f0e442,#f0e442,,0.2,-0.2,#009e73,#009e73,,0.2,0.2,#4A4A4A,#4A4A4A,,0.2,0,#cc79a7,#e69f00,,A2FARB7LA24AU8,001,2020-12-12_09h18.06.016,change-localization,2020.1.2,MacIntel,60,,,0,45,45,45,1,,
,,0.204770508,0.198789063,1,0,0,1.050915,probe3,"[0.2,0.2]",,,,,,47,probe3,0.05,0.05,0,-0.1,#009e73,#009e73,,-0.2,0.2,#f0e442,#f0e442,,0.2,0.2,#56b4e9,#cc79a7,,-0.1,0.2,#4A4A4A,#4A4A4A,,-0.1,0.1,#e69f00,#e69f00,,A2FARB7LA24AU8,001,2020-12-12_09h18.06.016,change-localization,2020.1.2,MacIntel,60,,,0,46,46,46,1,,
,,-0.194291992,-0.09671875,1,0,0,0.98375,probe4,"[-0.2,-0.1]",,,,,,48,probe4,0.05,0.05,0.2,-0.2,#cc79a7,#cc79a7,,-0.1,0.1,#009e73,#009e73,,0.1,-0.2,#f0e442,#f0e442,,-0.2,-0.1,#d55e00,#0072b2,,-0.1,0,#56b4e9,#56b4e9,,A2FARB7LA24AU8,001,2020-12-12_09h18.06.016,change-localization,2020.1.2,MacIntel,60,,,0,47,47,47,1,,
,,-0.094140625,-0.1065625,1,0,0,1.485635,probe5,"[-0.1,-0.1]",,,,,,49,probe2,0.05,0.05,0,-0.2,#e69f00,#e69f00,,-0.2,0,#cc79a7,#0072b2,,-0.1,0.2,#f0e442,#f0e442,,0.1,0.2,#4A4A4A,#4A4A4A,,-0.1,-0.1,#56b4e9,#56b4e9,,A2FARB7LA24AU8,001,2020-12-12_09h18.06.016,change-localization,2020.1.2,MacIntel,60,,,0,48,48,48,1,,
,,-0.093457031,-0.004775391,1,0,0,1.185245,probe4,"[-0.1,0]",,,,,,50,probe4,0.05,0.05,0.2,0.1,#0072b2,#0072b2,,0.1,0.1,#cc79a7,#cc79a7,,0.1,-0.2,#56b4e9,#56b4e9,,-0.1,0,#009e73,#e69f00,,0,0.1,#d55e00,#d55e00,,A2FARB7LA24AU8,001,2020-12-12_09h18.06.016,change-localization,2020.1.2,MacIntel,60,,,0,49,49,49,1,,
,,,,,,,,,,,,,,,,,,,,,,,,,,,,,,,,,,,,,,,,,,,,A2FARB7LA24AU8,001,2020-12-12_09h18.06.016,change-localization,2020.1.2,MacIntel,60,,,,,,,,c,9.25097
