key_resp.keys,key_resp.rt,mouse.x,mouse.y,mouse.leftButton,mouse.midButton,mouse.rightButton,mouse.time,mouse.clicked_name,mouse.clicked_pos,training.thisRepN,training.thisTrialN,training.thisN,training.thisIndex,training.ran,trial,answer,height,width,x1,y1,stim_color1,probe_color1,copy_color1,x2,y2,stim_color2,probe_color2,copy_color2,x3,y3,stim_color3,probe_color3,copy_color3,x4,y4,stim_color4,probe_color4,copy_color4,x5,y5,stim_color5,probe_color5,copy_color5,participant,session,date,expName,psychopyVersion,OS,frameRate,key_resp_2.keys,key_resp_2.rt,trials.thisRepN,trials.thisTrialN,trials.thisN,trials.thisIndex,trials.ran,completion_keys.keys,completion_keys.rt
c,42.610355,0.195555556,-0.003333333,1,0,0,7.999995,probe5,"[0.2,0]",0,0,0,0,1,1,probe4,0.05,0.05,0.1,0.2,#0072b2,#0072b2,#0072b2,0.1,-0.1,#e69f00,#e69f00,#e69f00,-0.1,-0.2,#cc79a7,#cc79a7,#cc79a7,0.2,-0.1,#4A4A4A,#f0e442,#FFFFFF,0.2,0,#009e73,#009e73,#009e73,A2I3IM3RJO2OL0,001,2020-12-12_07h32.11.456,change-localization,2020.1.2,Win32,60,,,,,,,,,
,,0.196666667,-0.011111111,1,0,0,4.947715,probe1,"[0.2,0]",0,1,1,1,1,2,probe1,0.05,0.05,0.2,0,#d55e00,#009e73,#FFFFFF,0.2,-0.1,#e69f00,#e69f00,#e69f00,0.1,0,#4A4A4A,#4A4A4A,#4A4A4A,-0.1,0.1,#56b4e9,#56b4e9,#56b4e9,-0.1,0,#cc79a7,#cc79a7,#cc79a7,A2I3IM3RJO2OL0,001,2020-12-12_07h32.11.456,change-localization,2020.1.2,Win32,60,,,,,,,,,
,,-0.205555556,-0.198888889,1,0,0,3.15946,probe1,"[-0.2,-0.2]",0,2,2,2,1,3,probe1,0.05,0.05,-0.2,-0.2,#f0e442,#009e73,#FFFFFF,0.2,-0.1,#d55e00,#d55e00,#d55e00,-0.2,0,#4A4A4A,#4A4A4A,#4A4A4A,-0.1,-0.1,#0072b2,#0072b2,#0072b2,0,-0.1,#56b4e9,#56b4e9,#56b4e9,A2I3IM3RJO2OL0,001,2020-12-12_07h32.11.456,change-localization,2020.1.2,Win32,60,,,,,,,,,
,,-0.194444444,-0.011111111,1,0,0,5.372095,probe4,"[-0.2,0]",0,3,3,3,1,4,probe1,0.05,0.05,0.2,0.2,#d55e00,#56b4e9,#FFFFFF,-0.2,0.2,#f0e442,#f0e442,#f0e442,0.2,-0.2,#0072b2,#0072b2,#0072b2,-0.2,0,#cc79a7,#cc79a7,#cc79a7,-0.2,0.1,#4A4A4A,#4A4A4A,#4A4A4A,A2I3IM3RJO2OL0,001,2020-12-12_07h32.11.456,change-localization,2020.1.2,Win32,60,,,,,,,,,
,,-0.204444444,0.085555556,1,0,0,8.910525,probe1,"[-0.2,0.1]",0,4,4,4,1,5,probe3,0.05,0.05,-0.2,0.1,#56b4e9,#56b4e9,#56b4e9,0,0.2,#009e73,#009e73,#009e73,0,0.1,#0072b2,#cc79a7,#FFFFFF,-0.1,-0.1,#4A4A4A,#4A4A4A,#4A4A4A,0.2,0,#f0e442,#f0e442,#f0e442,A2I3IM3RJO2OL0,001,2020-12-12_07h32.11.456,change-localization,2020.1.2,Win32,60,,,,,,,,,
,,0.006666667,0.094444444,1,0,0,1.87029,probe2,"[0,0.1]",0,5,5,5,1,6,probe5,0.05,0.05,-0.1,0.1,#f0e442,#f0e442,#f0e442,0,0.1,#009e73,#009e73,#009e73,-0.2,0,#4A4A4A,#4A4A4A,#4A4A4A,0,-0.2,#d55e00,#d55e00,#d55e00,0.1,0,#cc79a7,#0072b2,#FFFFFF,A2I3IM3RJO2OL0,001,2020-12-12_07h32.11.456,change-localization,2020.1.2,Win32,60,,,,,,,,,
,,0.093333333,0.201111111,1,0,0,2.364975,probe2,"[0.1,0.2]",0,6,6,6,1,7,probe2,0.05,0.05,-0.2,-0.2,#4A4A4A,#4A4A4A,#4A4A4A,0.1,0.2,#0072b2,#d55e00,#FFFFFF,-0.1,-0.2,#f0e442,#f0e442,#f0e442,-0.2,0.2,#009e73,#009e73,#009e73,0.2,0.2,#e69f00,#e69f00,#e69f00,A2I3IM3RJO2OL0,001,2020-12-12_07h32.11.456,change-localization,2020.1.2,Win32,60,,,,,,,,,
,,0.203333333,0.004444444,1,0,0,1.67121,probe5,"[0.2,0]",0,7,7,7,1,8,probe1,0.05,0.05,0.1,-0.2,#009e73,#f0e442,#FFFFFF,-0.1,0,#d55e00,#d55e00,#d55e00,-0.1,0.1,#4A4A4A,#4A4A4A,#4A4A4A,-0.2,0,#cc79a7,#cc79a7,#cc79a7,0.2,0,#e69f00,#e69f00,#e69f00,A2I3IM3RJO2OL0,001,2020-12-12_07h32.11.456,change-localization,2020.1.2,Win32,60,,,,,,,,,
,,0.108888889,-0.205555556,1,0,0,1.800895,probe1,"[0.1,-0.2]",0,8,8,8,1,9,probe1,0.05,0.05,0.1,-0.2,#0072b2,#e69f00,#FFFFFF,-0.1,0.2,#f0e442,#f0e442,#f0e442,-0.2,0.1,#d55e00,#d55e00,#d55e00,0.2,0.2,#cc79a7,#cc79a7,#cc79a7,0.1,0.1,#56b4e9,#56b4e9,#56b4e9,A2I3IM3RJO2OL0,001,2020-12-12_07h32.11.456,change-localization,2020.1.2,Win32,60,,,,,,,,,
,,-0.082222222,-0.114444444,1,0,0,2.20268,probe1,"[-0.1,-0.1]",0,9,9,9,1,10,probe1,0.05,0.05,-0.1,-0.1,#4A4A4A,#f0e442,#FFFFFF,0,0.2,#cc79a7,#cc79a7,#cc79a7,0.2,-0.2,#e69f00,#e69f00,#e69f00,0.1,-0.2,#009e73,#009e73,#009e73,0.1,0.1,#d55e00,#d55e00,#d55e00,A2I3IM3RJO2OL0,001,2020-12-12_07h32.11.456,change-localization,2020.1.2,Win32,60,,,,,,,,,
,,-0.191111111,0.194444444,1,0,0,3.538195,probe1,"[-0.2,0.2]",,,,,,1,probe2,0.05,0.05,-0.2,0.2,#009e73,#009e73,,-0.1,0.2,#f0e442,#e69f00,,-0.1,0,#0072b2,#0072b2,,0,-0.2,#cc79a7,#cc79a7,,0,0.2,#d55e00,#d55e00,,A2I3IM3RJO2OL0,001,2020-12-12_07h32.11.456,change-localization,2020.1.2,Win32,60,c,19.45089,0,0,0,0,1,,
,,-0.013333333,-0.09,1,0,0,1.704665,probe5,"[0,-0.1]",,,,,,2,probe5,0.05,0.05,0,0.1,#009e73,#009e73,,0.2,0.1,#4A4A4A,#4A4A4A,,-0.1,-0.1,#cc79a7,#cc79a7,,0.1,0.1,#d55e00,#d55e00,,0,-0.1,#56b4e9,#e69f00,,A2I3IM3RJO2OL0,001,2020-12-12_07h32.11.456,change-localization,2020.1.2,Win32,60,,,0,1,1,1,1,,
,,-0.113333333,0.1,1,0,0,1.533485,probe4,"[-0.1,0.1]",,,,,,3,probe4,0.05,0.05,0.1,-0.1,#56b4e9,#56b4e9,,0.2,0,#f0e442,#f0e442,,0.2,-0.1,#e69f00,#e69f00,,-0.1,0.1,#4A4A4A,#009e73,,-0.1,0.2,#d55e00,#d55e00,,A2I3IM3RJO2OL0,001,2020-12-12_07h32.11.456,change-localization,2020.1.2,Win32,60,,,0,2,2,2,1,,
,,-0.192222222,0.005555556,1,0,0,1.72106,probe5,"[-0.2,0]",,,,,,4,probe5,0.05,0.05,0.2,0,#56b4e9,#56b4e9,,-0.2,-0.2,#cc79a7,#cc79a7,,0,0.2,#4A4A4A,#4A4A4A,,0.2,-0.2,#e69f00,#e69f00,,-0.2,0,#f0e442,#009e73,,A2I3IM3RJO2OL0,001,2020-12-12_07h32.11.456,change-localization,2020.1.2,Win32,60,,,0,3,3,3,1,,
,,-0.098888889,-0.105555556,1,0,0,1.478885,probe3,"[-0.1,-0.1]",,,,,,5,probe3,0.05,0.05,-0.2,0.1,#4A4A4A,#4A4A4A,,0.2,0.2,#009e73,#009e73,,-0.1,-0.1,#0072b2,#f0e442,,0.2,0,#cc79a7,#cc79a7,,0.1,0.1,#e69f00,#e69f00,,A2I3IM3RJO2OL0,001,2020-12-12_07h32.11.456,change-localization,2020.1.2,Win32,60,,,0,4,4,4,1,,
,,-0.205555556,0.196666667,1,0,0,1.86063,probe2,"[-0.2,0.2]",,,,,,6,probe4,0.05,0.05,-0.1,0.1,#d55e00,#d55e00,,-0.2,0.2,#0072b2,#0072b2,,0,-0.1,#e69f00,#e69f00,,0,0.2,#56b4e9,#4A4A4A,,-0.2,-0.2,#009e73,#009e73,,A2I3IM3RJO2OL0,001,2020-12-12_07h32.11.456,change-localization,2020.1.2,Win32,60,,,0,5,5,5,1,,
,,-0.11,-0.105555556,1,0,0,2.20034,probe2,"[-0.1,-0.1]",,,,,,7,probe4,0.05,0.05,0.2,-0.1,#56b4e9,#56b4e9,,-0.1,-0.1,#e69f00,#e69f00,,-0.2,0.2,#009e73,#009e73,,0.2,0.2,#cc79a7,#4A4A4A,,0.2,-0.2,#d55e00,#d55e00,,A2I3IM3RJO2OL0,001,2020-12-12_07h32.11.456,change-localization,2020.1.2,Win32,60,,,0,6,6,6,1,,
,,-0.224444444,0.198888889,1,0,0,1.87494,probe4,"[-0.2,0.2]",,,,,,8,probe4,0.05,0.05,-0.2,0.1,#e69f00,#e69f00,,0.1,0.2,#cc79a7,#cc79a7,,0.2,0.1,#4A4A4A,#4A4A4A,,-0.2,0.2,#56b4e9,#d55e00,,0.2,-0.1,#0072b2,#0072b2,,A2I3IM3RJO2OL0,001,2020-12-12_07h32.11.456,change-localization,2020.1.2,Win32,60,,,0,7,7,7,1,,
,,-0.098888889,-0.021111111,1,0,0,3.19398,probe1,"[-0.1,0]",,,,,,9,probe5,0.05,0.05,-0.1,0,#4A4A4A,#4A4A4A,,0.1,0.1,#56b4e9,#56b4e9,,-0.2,0.1,#009e73,#009e73,,0.2,0.1,#cc79a7,#cc79a7,,0.2,0.2,#d55e00,#f0e442,,A2I3IM3RJO2OL0,001,2020-12-12_07h32.11.456,change-localization,2020.1.2,Win32,60,,,0,8,8,8,1,,
,,-0.005555556,0.105555556,1,0,0,1.891185,probe3,"[0,0.1]",,,,,,10,probe3,0.05,0.05,0.2,0.2,#f0e442,#f0e442,,0.1,-0.1,#e69f00,#e69f00,,0,0.1,#cc79a7,#4A4A4A,,-0.2,0.1,#56b4e9,#56b4e9,,0.2,0,#0072b2,#0072b2,,A2I3IM3RJO2OL0,001,2020-12-12_07h32.11.456,change-localization,2020.1.2,Win32,60,,,0,9,9,9,1,,
,,-0.017777778,-0.205555556,1,0,0,3.171905,probe4,"[0,-0.2]",,,,,,11,probe5,0.05,0.05,0.2,0.2,#4A4A4A,#4A4A4A,,0.1,0.2,#0072b2,#0072b2,,0.1,-0.1,#cc79a7,#cc79a7,,0,-0.2,#009e73,#009e73,,0.1,-0.2,#f0e442,#d55e00,,A2I3IM3RJO2OL0,001,2020-12-12_07h32.11.456,change-localization,2020.1.2,Win32,60,,,0,10,10,10,1,,
,,-0.106666667,-0.002222222,1,0,0,2.812805,probe2,"[-0.1,0]",,,,,,12,probe4,0.05,0.05,-0.1,-0.1,#009e73,#009e73,,-0.1,0,#56b4e9,#56b4e9,,-0.1,-0.2,#0072b2,#0072b2,,0.1,0,#d55e00,#f0e442,,0,-0.1,#cc79a7,#cc79a7,,A2I3IM3RJO2OL0,001,2020-12-12_07h32.11.456,change-localization,2020.1.2,Win32,60,,,0,11,11,11,1,,
,,-0.198888889,0.204444444,1,0,0,1.456785,probe4,"[-0.2,0.2]",,,,,,13,probe4,0.05,0.05,0,-0.1,#f0e442,#f0e442,,0.1,-0.1,#d55e00,#d55e00,,0.1,0.1,#0072b2,#0072b2,,-0.2,0.2,#cc79a7,#4A4A4A,,0.1,0.2,#009e73,#009e73,,A2I3IM3RJO2OL0,001,2020-12-12_07h32.11.456,change-localization,2020.1.2,Win32,60,,,0,12,12,12,1,,
,,0.104444444,0.184444444,1,0,0,1.922575,probe5,"[0.1,0.2]",,,,,,14,probe5,0.05,0.05,0,0.2,#cc79a7,#cc79a7,,0,-0.1,#4A4A4A,#4A4A4A,,-0.2,0,#56b4e9,#56b4e9,,0.1,0.1,#0072b2,#0072b2,,0.1,0.2,#009e73,#e69f00,,A2I3IM3RJO2OL0,001,2020-12-12_07h32.11.456,change-localization,2020.1.2,Win32,60,,,0,13,13,13,1,,
,,0.21,0.094444444,1,0,0,2.726115,probe3,"[0.2,0.1]",,,,,,15,probe3,0.05,0.05,0.2,0.2,#cc79a7,#cc79a7,,0,0.2,#56b4e9,#56b4e9,,0.2,0.1,#d55e00,#4A4A4A,,0.1,-0.1,#f0e442,#f0e442,,0.2,-0.1,#0072b2,#0072b2,,A2I3IM3RJO2OL0,001,2020-12-12_07h32.11.456,change-localization,2020.1.2,Win32,60,,,0,14,14,14,1,,
,,0.105555556,0.096666667,1,0,0,2.0273,probe3,"[0.1,0.1]",,,,,,16,probe3,0.05,0.05,-0.2,-0.1,#f0e442,#f0e442,,-0.2,0.2,#d55e00,#d55e00,,0.1,0.1,#009e73,#4A4A4A,,-0.2,0.1,#56b4e9,#56b4e9,,0,-0.1,#cc79a7,#cc79a7,,A2I3IM3RJO2OL0,001,2020-12-12_07h32.11.456,change-localization,2020.1.2,Win32,60,,,0,15,15,15,1,,
,,0.007777778,0.093333333,1,0,0,1.30975,probe3,"[0,0.1]",,,,,,17,probe3,0.05,0.05,0.2,-0.1,#cc79a7,#cc79a7,,0,-0.2,#0072b2,#0072b2,,0,0.1,#4A4A4A,#e69f00,,-0.2,-0.1,#f0e442,#f0e442,,-0.1,-0.1,#009e73,#009e73,,A2I3IM3RJO2OL0,001,2020-12-12_07h32.11.456,change-localization,2020.1.2,Win32,60,,,0,16,16,16,1,,
,,0.2,-0.007777778,1,0,0,1.866135,probe3,"[0.2,0]",,,,,,18,probe3,0.05,0.05,-0.1,0.1,#d55e00,#d55e00,,-0.1,0.2,#e69f00,#e69f00,,0.2,0,#009e73,#0072b2,,0.1,-0.1,#cc79a7,#cc79a7,,-0.2,0.2,#4A4A4A,#4A4A4A,,A2I3IM3RJO2OL0,001,2020-12-12_07h32.11.456,change-localization,2020.1.2,Win32,60,,,0,17,17,17,1,,
,,-0.088888889,0.096666667,1,0,0,1.7511,probe3,"[-0.1,0.1]",,,,,,19,probe3,0.05,0.05,-0.1,0.2,#0072b2,#0072b2,,0,-0.1,#4A4A4A,#4A4A4A,,-0.1,0.1,#e69f00,#009e73,,0.2,0.1,#d55e00,#d55e00,,-0.2,0.1,#cc79a7,#cc79a7,,A2I3IM3RJO2OL0,001,2020-12-12_07h32.11.456,change-localization,2020.1.2,Win32,60,,,0,18,18,18,1,,
,,-0.182222222,-0.204444444,1,0,0,2.508335,probe3,"[-0.2,-0.2]",,,,,,20,probe4,0.05,0.05,0.2,0,#56b4e9,#56b4e9,,-0.1,0.2,#009e73,#009e73,,-0.2,-0.2,#e69f00,#e69f00,,0,-0.1,#f0e442,#cc79a7,,-0.1,0,#4A4A4A,#4A4A4A,,A2I3IM3RJO2OL0,001,2020-12-12_07h32.11.456,change-localization,2020.1.2,Win32,60,,,0,19,19,19,1,,
,,-0.211111111,0.204444444,1,0,0,2.73147,probe4,"[-0.2,0.2]",,,,,,21,probe3,0.05,0.05,-0.1,0.1,#0072b2,#0072b2,,-0.1,0.2,#009e73,#009e73,,0.2,0,#56b4e9,#4A4A4A,,-0.2,0.2,#f0e442,#f0e442,,0.2,0.1,#d55e00,#d55e00,,A2I3IM3RJO2OL0,001,2020-12-12_07h32.11.456,change-localization,2020.1.2,Win32,60,,,0,20,20,20,1,,
,,-0.195555556,-0.101111111,1,0,0,1.87805,probe4,"[-0.2,-0.1]",,,,,,22,probe4,0.05,0.05,0.2,-0.1,#d55e00,#d55e00,,0.2,0,#56b4e9,#56b4e9,,0.1,-0.2,#cc79a7,#cc79a7,,-0.2,-0.1,#4A4A4A,#009e73,,0,-0.2,#e69f00,#e69f00,,A2I3IM3RJO2OL0,001,2020-12-12_07h32.11.456,change-localization,2020.1.2,Win32,60,,,0,21,21,21,1,,
,,-0.212222222,-0.097777778,1,0,0,3.442605,probe2,"[-0.2,-0.1]",,,,,,23,probe4,0.05,0.05,0.1,0.1,#56b4e9,#56b4e9,,-0.2,-0.1,#0072b2,#0072b2,,0.2,0,#d55e00,#d55e00,,-0.2,-0.2,#cc79a7,#009e73,,0.1,-0.2,#4A4A4A,#4A4A4A,,A2I3IM3RJO2OL0,001,2020-12-12_07h32.11.456,change-localization,2020.1.2,Win32,60,,,0,22,22,22,1,,
,,-0.205555556,0.117777778,1,0,0,1.68596,probe5,"[-0.2,0.1]",,,,,,24,probe2,0.05,0.05,-0.1,-0.2,#4A4A4A,#4A4A4A,,0.2,0.2,#d55e00,#e69f00,,0.1,-0.1,#f0e442,#f0e442,,0.1,0.1,#56b4e9,#56b4e9,,-0.2,0.1,#cc79a7,#cc79a7,,A2I3IM3RJO2OL0,001,2020-12-12_07h32.11.456,change-localization,2020.1.2,Win32,60,,,0,23,23,23,1,,
,,-0.207777778,-0.207777778,1,0,0,2.293935,probe1,"[-0.2,-0.2]",,,,,,25,probe3,0.05,0.05,-0.2,-0.2,#f0e442,#f0e442,,-0.1,-0.1,#4A4A4A,#4A4A4A,,0.2,0,#d55e00,#cc79a7,,0,0.2,#0072b2,#0072b2,,-0.2,0.1,#009e73,#009e73,,A2I3IM3RJO2OL0,001,2020-12-12_07h32.11.456,change-localization,2020.1.2,Win32,60,,,0,24,24,24,1,,
,,-0.115555556,-0.196666667,1,0,0,1.617785,probe3,"[-0.1,-0.2]",,,,,,26,probe3,0.05,0.05,0.1,-0.1,#e69f00,#e69f00,,-0.2,0,#56b4e9,#56b4e9,,-0.1,-0.2,#009e73,#d55e00,,-0.2,-0.1,#4A4A4A,#4A4A4A,,0.1,0,#cc79a7,#cc79a7,,A2I3IM3RJO2OL0,001,2020-12-12_07h32.11.456,change-localization,2020.1.2,Win32,60,,,0,25,25,25,1,,
,,-0.188888889,-0.102222222,1,0,0,2.59532,probe5,"[-0.2,-0.1]",,,,,,27,probe5,0.05,0.05,-0.1,-0.2,#009e73,#009e73,,0.2,0,#cc79a7,#cc79a7,,-0.1,-0.1,#e69f00,#e69f00,,0.1,0.1,#d55e00,#d55e00,,-0.2,-0.1,#4A4A4A,#0072b2,,A2I3IM3RJO2OL0,001,2020-12-12_07h32.11.456,change-localization,2020.1.2,Win32,60,,,0,26,26,26,1,,
,,0.004444444,-0.192222222,1,0,0,2.81582,probe3,"[0,-0.2]",,,,,,28,probe5,0.05,0.05,-0.1,0.2,#009e73,#009e73,,-0.2,0.1,#56b4e9,#56b4e9,,0,-0.2,#d55e00,#d55e00,,0.1,0,#0072b2,#0072b2,,0.1,0.1,#f0e442,#e69f00,,A2I3IM3RJO2OL0,001,2020-12-12_07h32.11.456,change-localization,2020.1.2,Win32,60,,,0,27,27,27,1,,
,,0.094444444,-0.1,1,0,0,1.608505,probe1,"[0.1,-0.1]",,,,,,29,probe1,0.05,0.05,0.1,-0.1,#4A4A4A,#56b4e9,,-0.2,0.2,#e69f00,#e69f00,,-0.1,-0.1,#f0e442,#f0e442,,0.1,0.2,#0072b2,#0072b2,,-0.1,-0.2,#cc79a7,#cc79a7,,A2I3IM3RJO2OL0,001,2020-12-12_07h32.11.456,change-localization,2020.1.2,Win32,60,,,0,28,28,28,1,,
,,0.105555556,-0.215555556,1,0,0,2.766025,probe4,"[0.1,-0.2]",,,,,,30,probe2,0.05,0.05,0.1,0.2,#f0e442,#f0e442,,-0.1,-0.2,#d55e00,#4A4A4A,,0,-0.2,#cc79a7,#cc79a7,,0.1,-0.2,#0072b2,#0072b2,,-0.2,0,#009e73,#009e73,,A2I3IM3RJO2OL0,001,2020-12-12_07h32.11.456,change-localization,2020.1.2,Win32,60,,,0,29,29,29,1,,
,,-0.102222222,-0.093333333,1,0,0,1.552255,probe5,"[-0.1,-0.1]",,,,,,31,probe5,0.05,0.05,0,-0.2,#d55e00,#d55e00,,0.1,0,#e69f00,#e69f00,,0.1,0.2,#f0e442,#f0e442,,-0.2,-0.1,#cc79a7,#cc79a7,,-0.1,-0.1,#009e73,#4A4A4A,,A2I3IM3RJO2OL0,001,2020-12-12_07h32.11.456,change-localization,2020.1.2,Win32,60,,,0,30,30,30,1,,
,,0.2,0.101111111,1,0,0,3.48094,probe3,"[0.2,0.1]",,,,,,32,probe3,0.05,0.05,0.2,0.2,#56b4e9,#56b4e9,,-0.1,-0.1,#009e73,#009e73,,0.2,0.1,#cc79a7,#0072b2,,-0.2,0.1,#4A4A4A,#4A4A4A,,-0.2,-0.1,#f0e442,#f0e442,,A2I3IM3RJO2OL0,001,2020-12-12_07h32.11.456,change-localization,2020.1.2,Win32,60,,,0,31,31,31,1,,
,,0.096666667,0.202222222,1,0,0,3.48084,probe5,"[0.1,0.2]",,,,,,33,probe3,0.05,0.05,-0.1,-0.1,#0072b2,#0072b2,,0.1,0.1,#cc79a7,#cc79a7,,-0.1,0.1,#f0e442,#009e73,,0,-0.2,#56b4e9,#56b4e9,,0.1,0.2,#e69f00,#e69f00,,A2I3IM3RJO2OL0,001,2020-12-12_07h32.11.456,change-localization,2020.1.2,Win32,60,,,0,32,32,32,1,,
,,-0.2,-0.005555556,1,0,0,2.00505,probe5,"[-0.2,0]",,,,,,34,probe5,0.05,0.05,0.2,0.1,#e69f00,#e69f00,,-0.2,0.1,#cc79a7,#cc79a7,,0.1,-0.2,#0072b2,#0072b2,,0.2,-0.2,#d55e00,#d55e00,,-0.2,0,#56b4e9,#009e73,,A2I3IM3RJO2OL0,001,2020-12-12_07h32.11.456,change-localization,2020.1.2,Win32,60,,,0,33,33,33,1,,
,,0.198888889,-0.096666667,1,0,0,1.85653,probe2,"[0.2,-0.1]",,,,,,35,probe2,0.05,0.05,0.2,0,#56b4e9,#56b4e9,,0.2,-0.1,#e69f00,#009e73,,0.1,-0.1,#f0e442,#f0e442,,0,0.2,#d55e00,#d55e00,,0.1,0.2,#cc79a7,#cc79a7,,A2I3IM3RJO2OL0,001,2020-12-12_07h32.11.456,change-localization,2020.1.2,Win32,60,,,0,34,34,34,1,,
,,-0.197777778,-0.108888889,1,0,0,2.301025,probe3,"[-0.2,-0.1]",,,,,,36,probe3,0.05,0.05,0,0.1,#4A4A4A,#4A4A4A,,0.2,0.1,#009e73,#009e73,,-0.2,-0.1,#f0e442,#56b4e9,,-0.1,-0.1,#e69f00,#e69f00,,0.1,0,#0072b2,#0072b2,,A2I3IM3RJO2OL0,001,2020-12-12_07h32.11.456,change-localization,2020.1.2,Win32,60,,,0,35,35,35,1,,
,,0.113333333,0.006666667,1,0,0,1.578745,probe5,"[0.1,0]",,,,,,37,probe5,0.05,0.05,-0.2,0.1,#e69f00,#e69f00,,0.1,0.1,#0072b2,#0072b2,,-0.2,0,#d55e00,#d55e00,,-0.1,0.2,#cc79a7,#cc79a7,,0.1,0,#009e73,#f0e442,,A2I3IM3RJO2OL0,001,2020-12-12_07h32.11.456,change-localization,2020.1.2,Win32,60,,,0,36,36,36,1,,
,,0.098888889,-0.096666667,1,0,0,2.461955,probe3,"[0.1,-0.1]",,,,,,38,probe4,0.05,0.05,0.2,-0.2,#4A4A4A,#4A4A4A,,0.2,0,#0072b2,#0072b2,,0.1,-0.1,#e69f00,#e69f00,,0.1,0,#d55e00,#cc79a7,,0,-0.1,#009e73,#009e73,,A2I3IM3RJO2OL0,001,2020-12-12_07h32.11.456,change-localization,2020.1.2,Win32,60,,,0,37,37,37,1,,
,,0.103333333,-0.106666667,1,0,0,3.0233,probe1,"[0.1,-0.1]",,,,,,39,probe4,0.05,0.05,0.1,-0.1,#e69f00,#e69f00,,-0.2,-0.1,#cc79a7,#cc79a7,,0.2,0.1,#d55e00,#d55e00,,-0.2,0.2,#56b4e9,#f0e442,,0,-0.1,#0072b2,#0072b2,,A2I3IM3RJO2OL0,001,2020-12-12_07h32.11.456,change-localization,2020.1.2,Win32,60,,,0,38,38,38,1,,
,,-0.193333333,0.096666667,1,0,0,1.495975,probe1,"[-0.2,0.1]",,,,,,40,probe1,0.05,0.05,-0.2,0.1,#4A4A4A,#d55e00,,0.2,0.2,#009e73,#009e73,,-0.1,-0.1,#cc79a7,#cc79a7,,0.2,-0.2,#e69f00,#e69f00,,0.1,-0.1,#56b4e9,#56b4e9,,A2I3IM3RJO2OL0,001,2020-12-12_07h32.11.456,change-localization,2020.1.2,Win32,60,,,0,39,39,39,1,,
,,-0.004444444,-0.207777778,1,0,0,3.85133,probe5,"[0,-0.2]",,,,,,41,probe4,0.05,0.05,0.2,0.1,#009e73,#009e73,,-0.2,-0.1,#0072b2,#0072b2,,-0.2,-0.2,#56b4e9,#56b4e9,,-0.1,0,#f0e442,#cc79a7,,0,-0.2,#d55e00,#d55e00,,A2I3IM3RJO2OL0,001,2020-12-12_07h32.11.456,change-localization,2020.1.2,Win32,60,,,0,40,40,40,1,,
,,0.103333333,0.086666667,1,0,0,3.023765,probe3,"[0.1,0.1]",,,,,,42,probe4,0.05,0.05,-0.1,-0.2,#009e73,#009e73,,-0.1,0.1,#cc79a7,#cc79a7,,0.1,0.1,#56b4e9,#56b4e9,,0,-0.2,#e69f00,#d55e00,,-0.1,0,#0072b2,#0072b2,,A2I3IM3RJO2OL0,001,2020-12-12_07h32.11.456,change-localization,2020.1.2,Win32,60,,,0,41,41,41,1,,
,,0.198888889,-0.093333333,1,0,0,1.702465,probe1,"[0.2,-0.1]",,,,,,43,probe1,0.05,0.05,0.2,-0.1,#e69f00,#009e73,,0.1,0,#cc79a7,#cc79a7,,-0.2,-0.2,#f0e442,#f0e442,,0.2,-0.2,#56b4e9,#56b4e9,,-0.2,0.1,#4A4A4A,#4A4A4A,,A2I3IM3RJO2OL0,001,2020-12-12_07h32.11.456,change-localization,2020.1.2,Win32,60,,,0,42,42,42,1,,
,,-0.092222222,0.198888889,1,0,0,1.278355,probe1,"[-0.1,0.2]",,,,,,44,probe1,0.05,0.05,-0.1,0.2,#56b4e9,#e69f00,,0.2,0.1,#4A4A4A,#4A4A4A,,0.1,0,#cc79a7,#cc79a7,,0.1,0.2,#f0e442,#f0e442,,-0.1,-0.1,#d55e00,#d55e00,,A2I3IM3RJO2OL0,001,2020-12-12_07h32.11.456,change-localization,2020.1.2,Win32,60,,,0,43,43,43,1,,
,,-0.105555556,0.187777778,1,0,0,6.52562,probe4,"[-0.1,0.2]",,,,,,45,probe3,0.05,0.05,-0.2,0.2,#0072b2,#0072b2,,-0.2,-0.1,#56b4e9,#56b4e9,,-0.1,0.1,#f0e442,#e69f00,,-0.1,0.2,#d55e00,#d55e00,,0,-0.2,#cc79a7,#cc79a7,,A2I3IM3RJO2OL0,001,2020-12-12_07h32.11.456,change-localization,2020.1.2,Win32,60,,,0,44,44,44,1,,
,,0.196666667,-0.191111111,1,0,0,2.558685,probe3,"[0.2,-0.2]",,,,,,46,probe5,0.05,0.05,0.2,0.1,#0072b2,#0072b2,,0.1,0.2,#f0e442,#f0e442,,0.2,-0.2,#009e73,#009e73,,0.2,0.2,#4A4A4A,#4A4A4A,,0.2,0,#cc79a7,#e69f00,,A2I3IM3RJO2OL0,001,2020-12-12_07h32.11.456,change-localization,2020.1.2,Win32,60,,,0,45,45,45,1,,
,,0.002222222,-0.087777778,1,0,0,3.34913,probe1,"[0,-0.1]",,,,,,47,probe3,0.05,0.05,0,-0.1,#009e73,#009e73,,-0.2,0.2,#f0e442,#f0e442,,0.2,0.2,#56b4e9,#cc79a7,,-0.1,0.2,#4A4A4A,#4A4A4A,,-0.1,0.1,#e69f00,#e69f00,,A2I3IM3RJO2OL0,001,2020-12-12_07h32.11.456,change-localization,2020.1.2,Win32,60,,,0,46,46,46,1,,
,,-0.206666667,-0.115555556,1,0,0,1.91651,probe4,"[-0.2,-0.1]",,,,,,48,probe4,0.05,0.05,0.2,-0.2,#cc79a7,#cc79a7,,-0.1,0.1,#009e73,#009e73,,0.1,-0.2,#f0e442,#f0e442,,-0.2,-0.1,#d55e00,#0072b2,,-0.1,0,#56b4e9,#56b4e9,,A2I3IM3RJO2OL0,001,2020-12-12_07h32.11.456,change-localization,2020.1.2,Win32,60,,,0,47,47,47,1,,
,,-0.2,-0.001111111,1,0,0,1.56343,probe2,"[-0.2,0]",,,,,,49,probe2,0.05,0.05,0,-0.2,#e69f00,#e69f00,,-0.2,0,#cc79a7,#0072b2,,-0.1,0.2,#f0e442,#f0e442,,0.1,0.2,#4A4A4A,#4A4A4A,,-0.1,-0.1,#56b4e9,#56b4e9,,A2I3IM3RJO2OL0,001,2020-12-12_07h32.11.456,change-localization,2020.1.2,Win32,60,,,0,48,48,48,1,,
,,-0.106666667,0.006666667,1,0,0,1.418895,probe4,"[-0.1,0]",,,,,,50,probe4,0.05,0.05,0.2,0.1,#0072b2,#0072b2,,0.1,0.1,#cc79a7,#cc79a7,,0.1,-0.2,#56b4e9,#56b4e9,,-0.1,0,#009e73,#e69f00,,0,0.1,#d55e00,#d55e00,,A2I3IM3RJO2OL0,001,2020-12-12_07h32.11.456,change-localization,2020.1.2,Win32,60,,,0,49,49,49,1,,
,,,,,,,,,,,,,,,,,,,,,,,,,,,,,,,,,,,,,,,,,,,,A2I3IM3RJO2OL0,001,2020-12-12_07h32.11.456,change-localization,2020.1.2,Win32,60,,,,,,,,c,9.87807
