key_resp.keys,key_resp.rt,mouse.x,mouse.y,mouse.leftButton,mouse.midButton,mouse.rightButton,mouse.time,mouse.clicked_name,mouse.clicked_pos,training.thisRepN,training.thisTrialN,training.thisN,training.thisIndex,training.ran,trial,answer,height,width,x1,y1,stim_color1,probe_color1,copy_color1,x2,y2,stim_color2,probe_color2,copy_color2,x3,y3,stim_color3,probe_color3,copy_color3,x4,y4,stim_color4,probe_color4,copy_color4,x5,y5,stim_color5,probe_color5,copy_color5,participant,session,date,expName,psychopyVersion,OS,frameRate,key_resp_2.keys,key_resp_2.rt,trials.thisRepN,trials.thisTrialN,trials.thisN,trials.thisIndex,trials.ran,completion_keys.keys,completion_keys.rt
c,5.30934,0.1015625,-0.110351563,1,0,0,3.13331,probe2,"[0.1,-0.1]",0,0,0,0,1,1,probe4,0.05,0.05,0.1,0.2,#0072b2,#0072b2,#0072b2,0.1,-0.1,#e69f00,#e69f00,#e69f00,-0.1,-0.2,#cc79a7,#cc79a7,#cc79a7,0.2,-0.1,#4A4A4A,#f0e442,#FFFFFF,0.2,0,#009e73,#009e73,#009e73,A2RCYLKY072XXO,001,2020-12-11_20h24.30.683,change-localization,2020.1.2,Win32,60,,,,,,,,,
,,0.110351563,-0.009765625,1,0,0,0.61688,probe3,"[0.1,0]",0,1,1,1,1,2,probe1,0.05,0.05,0.2,0,#d55e00,#009e73,#FFFFFF,0.2,-0.1,#e69f00,#e69f00,#e69f00,0.1,0,#4A4A4A,#4A4A4A,#4A4A4A,-0.1,0.1,#56b4e9,#56b4e9,#56b4e9,-0.1,0,#cc79a7,#cc79a7,#cc79a7,A2RCYLKY072XXO,001,2020-12-11_20h24.30.683,change-localization,2020.1.2,Win32,60,,,,,,,,,
,,-0.09375,-0.090820313,1,0,0,0.65103,probe4,"[-0.1,-0.1]",0,2,2,2,1,3,probe1,0.05,0.05,-0.2,-0.2,#f0e442,#009e73,#FFFFFF,0.2,-0.1,#d55e00,#d55e00,#d55e00,-0.2,0,#4A4A4A,#4A4A4A,#4A4A4A,-0.1,-0.1,#0072b2,#0072b2,#0072b2,0,-0.1,#56b4e9,#56b4e9,#56b4e9,A2RCYLKY072XXO,001,2020-12-11_20h24.30.683,change-localization,2020.1.2,Win32,60,,,,,,,,,
,,0.193359375,0.20703125,1,0,0,1.400665,probe1,"[0.2,0.2]",0,3,3,3,1,4,probe1,0.05,0.05,0.2,0.2,#d55e00,#56b4e9,#FFFFFF,-0.2,0.2,#f0e442,#f0e442,#f0e442,0.2,-0.2,#0072b2,#0072b2,#0072b2,-0.2,0,#cc79a7,#cc79a7,#cc79a7,-0.2,0.1,#4A4A4A,#4A4A4A,#4A4A4A,A2RCYLKY072XXO,001,2020-12-11_20h24.30.683,change-localization,2020.1.2,Win32,60,,,,,,,,,
,,0.005859375,0.095703125,1,0,0,0.934225,probe3,"[0,0.1]",0,4,4,4,1,5,probe3,0.05,0.05,-0.2,0.1,#56b4e9,#56b4e9,#56b4e9,0,0.2,#009e73,#009e73,#009e73,0,0.1,#0072b2,#cc79a7,#FFFFFF,-0.1,-0.1,#4A4A4A,#4A4A4A,#4A4A4A,0.2,0,#f0e442,#f0e442,#f0e442,A2RCYLKY072XXO,001,2020-12-11_20h24.30.683,change-localization,2020.1.2,Win32,60,,,,,,,,,
,,0.100585938,0.005859375,1,0,0,0.75094,probe5,"[0.1,0]",0,5,5,5,1,6,probe5,0.05,0.05,-0.1,0.1,#f0e442,#f0e442,#f0e442,0,0.1,#009e73,#009e73,#009e73,-0.2,0,#4A4A4A,#4A4A4A,#4A4A4A,0,-0.2,#d55e00,#d55e00,#d55e00,0.1,0,#cc79a7,#0072b2,#FFFFFF,A2RCYLKY072XXO,001,2020-12-11_20h24.30.683,change-localization,2020.1.2,Win32,60,,,,,,,,,
,,0.094726563,0.196289063,1,0,0,0.800135,probe2,"[0.1,0.2]",0,6,6,6,1,7,probe2,0.05,0.05,-0.2,-0.2,#4A4A4A,#4A4A4A,#4A4A4A,0.1,0.2,#0072b2,#d55e00,#FFFFFF,-0.1,-0.2,#f0e442,#f0e442,#f0e442,-0.2,0.2,#009e73,#009e73,#009e73,0.2,0.2,#e69f00,#e69f00,#e69f00,A2RCYLKY072XXO,001,2020-12-11_20h24.30.683,change-localization,2020.1.2,Win32,60,,,,,,,,,
,,0.094726563,-0.205078125,1,0,0,1.23381,probe1,"[0.1,-0.2]",0,7,7,7,1,8,probe1,0.05,0.05,0.1,-0.2,#009e73,#f0e442,#FFFFFF,-0.1,0,#d55e00,#d55e00,#d55e00,-0.1,0.1,#4A4A4A,#4A4A4A,#4A4A4A,-0.2,0,#cc79a7,#cc79a7,#cc79a7,0.2,0,#e69f00,#e69f00,#e69f00,A2RCYLKY072XXO,001,2020-12-11_20h24.30.683,change-localization,2020.1.2,Win32,60,,,,,,,,,
,,0.103515625,-0.227539063,1,0,0,1.04935,probe1,"[0.1,-0.2]",0,8,8,8,1,9,probe1,0.05,0.05,0.1,-0.2,#0072b2,#e69f00,#FFFFFF,-0.1,0.2,#f0e442,#f0e442,#f0e442,-0.2,0.1,#d55e00,#d55e00,#d55e00,0.2,0.2,#cc79a7,#cc79a7,#cc79a7,0.1,0.1,#56b4e9,#56b4e9,#56b4e9,A2RCYLKY072XXO,001,2020-12-11_20h24.30.683,change-localization,2020.1.2,Win32,60,,,,,,,,,
,,0.077148438,0.088867188,1,0,0,1.18372,probe5,"[0.1,0.1]",0,9,9,9,1,10,probe1,0.05,0.05,-0.1,-0.1,#4A4A4A,#f0e442,#FFFFFF,0,0.2,#cc79a7,#cc79a7,#cc79a7,0.2,-0.2,#e69f00,#e69f00,#e69f00,0.1,-0.2,#009e73,#009e73,#009e73,0.1,0.1,#d55e00,#d55e00,#d55e00,A2RCYLKY072XXO,001,2020-12-11_20h24.30.683,change-localization,2020.1.2,Win32,60,,,,,,,,,
,,0.000976563,-0.200195313,1,0,0,1.29957,probe4,"[0,-0.2]",,,,,,1,probe2,0.05,0.05,-0.2,0.2,#009e73,#009e73,,-0.1,0.2,#f0e442,#e69f00,,-0.1,0,#0072b2,#0072b2,,0,-0.2,#cc79a7,#cc79a7,,0,0.2,#d55e00,#d55e00,,A2RCYLKY072XXO,001,2020-12-11_20h24.30.683,change-localization,2020.1.2,Win32,60,c,1.458065,0,0,0,0,1,,
,,0.178710938,0.081054688,1,0,0,1.95013,probe2,"[0.2,0.1]",,,,,,2,probe5,0.05,0.05,0,0.1,#009e73,#009e73,,0.2,0.1,#4A4A4A,#4A4A4A,,-0.1,-0.1,#cc79a7,#cc79a7,,0.1,0.1,#d55e00,#d55e00,,0,-0.1,#56b4e9,#e69f00,,A2RCYLKY072XXO,001,2020-12-11_20h24.30.683,change-localization,2020.1.2,Win32,60,,,0,1,1,1,1,,
,,0.111328125,-0.094726563,1,0,0,0.999735,probe1,"[0.1,-0.1]",,,,,,3,probe4,0.05,0.05,0.1,-0.1,#56b4e9,#56b4e9,,0.2,0,#f0e442,#f0e442,,0.2,-0.1,#e69f00,#e69f00,,-0.1,0.1,#4A4A4A,#009e73,,-0.1,0.2,#d55e00,#d55e00,,A2RCYLKY072XXO,001,2020-12-11_20h24.30.683,change-localization,2020.1.2,Win32,60,,,0,2,2,2,1,,
,,-0.181640625,-0.005859375,1,0,0,0.90054,probe5,"[-0.2,0]",,,,,,4,probe5,0.05,0.05,0.2,0,#56b4e9,#56b4e9,,-0.2,-0.2,#cc79a7,#cc79a7,,0,0.2,#4A4A4A,#4A4A4A,,0.2,-0.2,#e69f00,#e69f00,,-0.2,0,#f0e442,#009e73,,A2RCYLKY072XXO,001,2020-12-11_20h24.30.683,change-localization,2020.1.2,Win32,60,,,0,3,3,3,1,,
,,-0.083007813,-0.096679688,1,0,0,1.182985,probe3,"[-0.1,-0.1]",,,,,,5,probe3,0.05,0.05,-0.2,0.1,#4A4A4A,#4A4A4A,,0.2,0.2,#009e73,#009e73,,-0.1,-0.1,#0072b2,#f0e442,,0.2,0,#cc79a7,#cc79a7,,0.1,0.1,#e69f00,#e69f00,,A2RCYLKY072XXO,001,2020-12-11_20h24.30.683,change-localization,2020.1.2,Win32,60,,,0,4,4,4,1,,
,,-0.19921875,-0.196289063,1,0,0,1.24958,probe5,"[-0.2,-0.2]",,,,,,6,probe4,0.05,0.05,-0.1,0.1,#d55e00,#d55e00,,-0.2,0.2,#0072b2,#0072b2,,0,-0.1,#e69f00,#e69f00,,0,0.2,#56b4e9,#4A4A4A,,-0.2,-0.2,#009e73,#009e73,,A2RCYLKY072XXO,001,2020-12-11_20h24.30.683,change-localization,2020.1.2,Win32,60,,,0,5,5,5,1,,
,,0.1953125,0.20703125,1,0,0,0.99968,probe4,"[0.2,0.2]",,,,,,7,probe4,0.05,0.05,0.2,-0.1,#56b4e9,#56b4e9,,-0.1,-0.1,#e69f00,#e69f00,,-0.2,0.2,#009e73,#009e73,,0.2,0.2,#cc79a7,#4A4A4A,,0.2,-0.2,#d55e00,#d55e00,,A2RCYLKY072XXO,001,2020-12-11_20h24.30.683,change-localization,2020.1.2,Win32,60,,,0,6,6,6,1,,
,,-0.19921875,0.09765625,1,0,0,1.45092,probe1,"[-0.2,0.1]",,,,,,8,probe4,0.05,0.05,-0.2,0.1,#e69f00,#e69f00,,0.1,0.2,#cc79a7,#cc79a7,,0.2,0.1,#4A4A4A,#4A4A4A,,-0.2,0.2,#56b4e9,#d55e00,,0.2,-0.1,#0072b2,#0072b2,,A2RCYLKY072XXO,001,2020-12-11_20h24.30.683,change-localization,2020.1.2,Win32,60,,,0,7,7,7,1,,
,,0.185546875,0.208007813,1,0,0,0.88425,probe5,"[0.2,0.2]",,,,,,9,probe5,0.05,0.05,-0.1,0,#4A4A4A,#4A4A4A,,0.1,0.1,#56b4e9,#56b4e9,,-0.2,0.1,#009e73,#009e73,,0.2,0.1,#cc79a7,#cc79a7,,0.2,0.2,#d55e00,#f0e442,,A2RCYLKY072XXO,001,2020-12-11_20h24.30.683,change-localization,2020.1.2,Win32,60,,,0,8,8,8,1,,
,,0.19140625,0.193359375,1,0,0,1.284455,probe1,"[0.2,0.2]",,,,,,10,probe3,0.05,0.05,0.2,0.2,#f0e442,#f0e442,,0.1,-0.1,#e69f00,#e69f00,,0,0.1,#cc79a7,#4A4A4A,,-0.2,0.1,#56b4e9,#56b4e9,,0.2,0,#0072b2,#0072b2,,A2RCYLKY072XXO,001,2020-12-11_20h24.30.683,change-localization,2020.1.2,Win32,60,,,0,9,9,9,1,,
,,0.108398438,-0.09765625,1,0,0,1.183885,probe3,"[0.1,-0.1]",,,,,,11,probe5,0.05,0.05,0.2,0.2,#4A4A4A,#4A4A4A,,0.1,0.2,#0072b2,#0072b2,,0.1,-0.1,#cc79a7,#cc79a7,,0,-0.2,#009e73,#009e73,,0.1,-0.2,#f0e442,#d55e00,,A2RCYLKY072XXO,001,2020-12-11_20h24.30.683,change-localization,2020.1.2,Win32,60,,,0,10,10,10,1,,
,,0.083984375,0.006835938,1,0,0,1.26749,probe4,"[0.1,0]",,,,,,12,probe4,0.05,0.05,-0.1,-0.1,#009e73,#009e73,,-0.1,0,#56b4e9,#56b4e9,,-0.1,-0.2,#0072b2,#0072b2,,0.1,0,#d55e00,#f0e442,,0,-0.1,#cc79a7,#cc79a7,,A2RCYLKY072XXO,001,2020-12-11_20h24.30.683,change-localization,2020.1.2,Win32,60,,,0,11,11,11,1,,
,,-0.220703125,0.208007813,1,0,0,1.116685,probe4,"[-0.2,0.2]",,,,,,13,probe4,0.05,0.05,0,-0.1,#f0e442,#f0e442,,0.1,-0.1,#d55e00,#d55e00,,0.1,0.1,#0072b2,#0072b2,,-0.2,0.2,#cc79a7,#4A4A4A,,0.1,0.2,#009e73,#009e73,,A2RCYLKY072XXO,001,2020-12-11_20h24.30.683,change-localization,2020.1.2,Win32,60,,,0,12,12,12,1,,
,,0.002929688,0.189453125,1,0,0,1.05066,probe1,"[0,0.2]",,,,,,14,probe5,0.05,0.05,0,0.2,#cc79a7,#cc79a7,,0,-0.1,#4A4A4A,#4A4A4A,,-0.2,0,#56b4e9,#56b4e9,,0.1,0.1,#0072b2,#0072b2,,0.1,0.2,#009e73,#e69f00,,A2RCYLKY072XXO,001,2020-12-11_20h24.30.683,change-localization,2020.1.2,Win32,60,,,0,13,13,13,1,,
,,-0.00390625,0.193359375,1,0,0,1.08384,probe2,"[0,0.2]",,,,,,15,probe3,0.05,0.05,0.2,0.2,#cc79a7,#cc79a7,,0,0.2,#56b4e9,#56b4e9,,0.2,0.1,#d55e00,#4A4A4A,,0.1,-0.1,#f0e442,#f0e442,,0.2,-0.1,#0072b2,#0072b2,,A2RCYLKY072XXO,001,2020-12-11_20h24.30.683,change-localization,2020.1.2,Win32,60,,,0,14,14,14,1,,
,,0.096679688,0.098632813,1,0,0,0.933045,probe3,"[0.1,0.1]",,,,,,16,probe3,0.05,0.05,-0.2,-0.1,#f0e442,#f0e442,,-0.2,0.2,#d55e00,#d55e00,,0.1,0.1,#009e73,#4A4A4A,,-0.2,0.1,#56b4e9,#56b4e9,,0,-0.1,#cc79a7,#cc79a7,,A2RCYLKY072XXO,001,2020-12-11_20h24.30.683,change-localization,2020.1.2,Win32,60,,,0,15,15,15,1,,
,,0.000976563,0.1015625,1,0,0,0.73313,probe3,"[0,0.1]",,,,,,17,probe3,0.05,0.05,0.2,-0.1,#cc79a7,#cc79a7,,0,-0.2,#0072b2,#0072b2,,0,0.1,#4A4A4A,#e69f00,,-0.2,-0.1,#f0e442,#f0e442,,-0.1,-0.1,#009e73,#009e73,,A2RCYLKY072XXO,001,2020-12-11_20h24.30.683,change-localization,2020.1.2,Win32,60,,,0,16,16,16,1,,
,,-0.095703125,0.09765625,1,0,0,2.266075,probe1,"[-0.1,0.1]",,,,,,18,probe3,0.05,0.05,-0.1,0.1,#d55e00,#d55e00,,-0.1,0.2,#e69f00,#e69f00,,0.2,0,#009e73,#0072b2,,0.1,-0.1,#cc79a7,#cc79a7,,-0.2,0.2,#4A4A4A,#4A4A4A,,A2RCYLKY072XXO,001,2020-12-11_20h24.30.683,change-localization,2020.1.2,Win32,60,,,0,17,17,17,1,,
,,-0.083007813,0.090820313,1,0,0,0.934135,probe3,"[-0.1,0.1]",,,,,,19,probe3,0.05,0.05,-0.1,0.2,#0072b2,#0072b2,,0,-0.1,#4A4A4A,#4A4A4A,,-0.1,0.1,#e69f00,#009e73,,0.2,0.1,#d55e00,#d55e00,,-0.2,0.1,#cc79a7,#cc79a7,,A2RCYLKY072XXO,001,2020-12-11_20h24.30.683,change-localization,2020.1.2,Win32,60,,,0,18,18,18,1,,
,,0.208984375,-0.004882813,1,0,0,1.516155,probe1,"[0.2,0]",,,,,,20,probe4,0.05,0.05,0.2,0,#56b4e9,#56b4e9,,-0.1,0.2,#009e73,#009e73,,-0.2,-0.2,#e69f00,#e69f00,,0,-0.1,#f0e442,#cc79a7,,-0.1,0,#4A4A4A,#4A4A4A,,A2RCYLKY072XXO,001,2020-12-11_20h24.30.683,change-localization,2020.1.2,Win32,60,,,0,19,19,19,1,,
,,0.208007813,-0.005859375,1,0,0,0.933065,probe3,"[0.2,0]",,,,,,21,probe3,0.05,0.05,-0.1,0.1,#0072b2,#0072b2,,-0.1,0.2,#009e73,#009e73,,0.2,0,#56b4e9,#4A4A4A,,-0.2,0.2,#f0e442,#f0e442,,0.2,0.1,#d55e00,#d55e00,,A2RCYLKY072XXO,001,2020-12-11_20h24.30.683,change-localization,2020.1.2,Win32,60,,,0,20,20,20,1,,
,,-0.198242188,-0.091796875,1,0,0,1.200805,probe4,"[-0.2,-0.1]",,,,,,22,probe4,0.05,0.05,0.2,-0.1,#d55e00,#d55e00,,0.2,0,#56b4e9,#56b4e9,,0.1,-0.2,#cc79a7,#cc79a7,,-0.2,-0.1,#4A4A4A,#009e73,,0,-0.2,#e69f00,#e69f00,,A2RCYLKY072XXO,001,2020-12-11_20h24.30.683,change-localization,2020.1.2,Win32,60,,,0,21,21,21,1,,
,,-0.182617188,-0.185546875,1,0,0,0.91635,probe4,"[-0.2,-0.2]",,,,,,23,probe4,0.05,0.05,0.1,0.1,#56b4e9,#56b4e9,,-0.2,-0.1,#0072b2,#0072b2,,0.2,0,#d55e00,#d55e00,,-0.2,-0.2,#cc79a7,#009e73,,0.1,-0.2,#4A4A4A,#4A4A4A,,A2RCYLKY072XXO,001,2020-12-11_20h24.30.683,change-localization,2020.1.2,Win32,60,,,0,22,22,22,1,,
,,0.09765625,0.087890625,1,0,0,1.06732,probe4,"[0.1,0.1]",,,,,,24,probe2,0.05,0.05,-0.1,-0.2,#4A4A4A,#4A4A4A,,0.2,0.2,#d55e00,#e69f00,,0.1,-0.1,#f0e442,#f0e442,,0.1,0.1,#56b4e9,#56b4e9,,-0.2,0.1,#cc79a7,#cc79a7,,A2RCYLKY072XXO,001,2020-12-11_20h24.30.683,change-localization,2020.1.2,Win32,60,,,0,23,23,23,1,,
,,0.197265625,-0.0078125,1,0,0,0.86714,probe3,"[0.2,0]",,,,,,25,probe3,0.05,0.05,-0.2,-0.2,#f0e442,#f0e442,,-0.1,-0.1,#4A4A4A,#4A4A4A,,0.2,0,#d55e00,#cc79a7,,0,0.2,#0072b2,#0072b2,,-0.2,0.1,#009e73,#009e73,,A2RCYLKY072XXO,001,2020-12-11_20h24.30.683,change-localization,2020.1.2,Win32,60,,,0,24,24,24,1,,
,,-0.075195313,-0.201171875,1,0,0,0.98307,probe3,"[-0.1,-0.2]",,,,,,26,probe3,0.05,0.05,0.1,-0.1,#e69f00,#e69f00,,-0.2,0,#56b4e9,#56b4e9,,-0.1,-0.2,#009e73,#d55e00,,-0.2,-0.1,#4A4A4A,#4A4A4A,,0.1,0,#cc79a7,#cc79a7,,A2RCYLKY072XXO,001,2020-12-11_20h24.30.683,change-localization,2020.1.2,Win32,60,,,0,25,25,25,1,,
,,-0.204101563,-0.096679688,1,0,0,0.983105,probe5,"[-0.2,-0.1]",,,,,,27,probe5,0.05,0.05,-0.1,-0.2,#009e73,#009e73,,0.2,0,#cc79a7,#cc79a7,,-0.1,-0.1,#e69f00,#e69f00,,0.1,0.1,#d55e00,#d55e00,,-0.2,-0.1,#4A4A4A,#0072b2,,A2RCYLKY072XXO,001,2020-12-11_20h24.30.683,change-localization,2020.1.2,Win32,60,,,0,26,26,26,1,,
,,-0.014648438,-0.203125,1,0,0,1.099635,probe3,"[0,-0.2]",,,,,,28,probe5,0.05,0.05,-0.1,0.2,#009e73,#009e73,,-0.2,0.1,#56b4e9,#56b4e9,,0,-0.2,#d55e00,#d55e00,,0.1,0,#0072b2,#0072b2,,0.1,0.1,#f0e442,#e69f00,,A2RCYLKY072XXO,001,2020-12-11_20h24.30.683,change-localization,2020.1.2,Win32,60,,,0,27,27,27,1,,
,,0.091796875,0.202148438,1,0,0,0.899745,probe4,"[0.1,0.2]",,,,,,29,probe1,0.05,0.05,0.1,-0.1,#4A4A4A,#56b4e9,,-0.2,0.2,#e69f00,#e69f00,,-0.1,-0.1,#f0e442,#f0e442,,0.1,0.2,#0072b2,#0072b2,,-0.1,-0.2,#cc79a7,#cc79a7,,A2RCYLKY072XXO,001,2020-12-11_20h24.30.683,change-localization,2020.1.2,Win32,60,,,0,28,28,28,1,,
,,-0.005859375,-0.1875,1,0,0,1.899395,probe3,"[0,-0.2]",,,,,,30,probe2,0.05,0.05,0.1,0.2,#f0e442,#f0e442,,-0.1,-0.2,#d55e00,#4A4A4A,,0,-0.2,#cc79a7,#cc79a7,,0.1,-0.2,#0072b2,#0072b2,,-0.2,0,#009e73,#009e73,,A2RCYLKY072XXO,001,2020-12-11_20h24.30.683,change-localization,2020.1.2,Win32,60,,,0,29,29,29,1,,
,,-0.09765625,-0.09375,1,0,0,0.916485,probe5,"[-0.1,-0.1]",,,,,,31,probe5,0.05,0.05,0,-0.2,#d55e00,#d55e00,,0.1,0,#e69f00,#e69f00,,0.1,0.2,#f0e442,#f0e442,,-0.2,-0.1,#cc79a7,#cc79a7,,-0.1,-0.1,#009e73,#4A4A4A,,A2RCYLKY072XXO,001,2020-12-11_20h24.30.683,change-localization,2020.1.2,Win32,60,,,0,30,30,30,1,,
,,0.231445313,0.110351563,1,0,0,1.01768,probe3,"[0.2,0.1]",,,,,,32,probe3,0.05,0.05,0.2,0.2,#56b4e9,#56b4e9,,-0.1,-0.1,#009e73,#009e73,,0.2,0.1,#cc79a7,#0072b2,,-0.2,0.1,#4A4A4A,#4A4A4A,,-0.2,-0.1,#f0e442,#f0e442,,A2RCYLKY072XXO,001,2020-12-11_20h24.30.683,change-localization,2020.1.2,Win32,60,,,0,31,31,31,1,,
,,-0.08984375,0.119140625,1,0,0,1.066285,probe3,"[-0.1,0.1]",,,,,,33,probe3,0.05,0.05,-0.1,-0.1,#0072b2,#0072b2,,0.1,0.1,#cc79a7,#cc79a7,,-0.1,0.1,#f0e442,#009e73,,0,-0.2,#56b4e9,#56b4e9,,0.1,0.2,#e69f00,#e69f00,,A2RCYLKY072XXO,001,2020-12-11_20h24.30.683,change-localization,2020.1.2,Win32,60,,,0,32,32,32,1,,
,,0.09765625,-0.196289063,1,0,0,1.03301,probe3,"[0.1,-0.2]",,,,,,34,probe5,0.05,0.05,0.2,0.1,#e69f00,#e69f00,,-0.2,0.1,#cc79a7,#cc79a7,,0.1,-0.2,#0072b2,#0072b2,,0.2,-0.2,#d55e00,#d55e00,,-0.2,0,#56b4e9,#009e73,,A2RCYLKY072XXO,001,2020-12-11_20h24.30.683,change-localization,2020.1.2,Win32,60,,,0,33,33,33,1,,
,,0.166992188,-0.088867188,1,0,0,0.767275,probe2,"[0.2,-0.1]",,,,,,35,probe2,0.05,0.05,0.2,0,#56b4e9,#56b4e9,,0.2,-0.1,#e69f00,#009e73,,0.1,-0.1,#f0e442,#f0e442,,0,0.2,#d55e00,#d55e00,,0.1,0.2,#cc79a7,#cc79a7,,A2RCYLKY072XXO,001,2020-12-11_20h24.30.683,change-localization,2020.1.2,Win32,60,,,0,34,34,34,1,,
,,-0.2109375,-0.096679688,1,0,0,1.033115,probe3,"[-0.2,-0.1]",,,,,,36,probe3,0.05,0.05,0,0.1,#4A4A4A,#4A4A4A,,0.2,0.1,#009e73,#009e73,,-0.2,-0.1,#f0e442,#56b4e9,,-0.1,-0.1,#e69f00,#e69f00,,0.1,0,#0072b2,#0072b2,,A2RCYLKY072XXO,001,2020-12-11_20h24.30.683,change-localization,2020.1.2,Win32,60,,,0,35,35,35,1,,
,,0.096679688,0,1,0,0,0.950565,probe5,"[0.1,0]",,,,,,37,probe5,0.05,0.05,-0.2,0.1,#e69f00,#e69f00,,0.1,0.1,#0072b2,#0072b2,,-0.2,0,#d55e00,#d55e00,,-0.1,0.2,#cc79a7,#cc79a7,,0.1,0,#009e73,#f0e442,,A2RCYLKY072XXO,001,2020-12-11_20h24.30.683,change-localization,2020.1.2,Win32,60,,,0,36,36,36,1,,
,,0.213867188,-0.002929688,1,0,0,0.900605,probe2,"[0.2,0]",,,,,,38,probe4,0.05,0.05,0.2,-0.2,#4A4A4A,#4A4A4A,,0.2,0,#0072b2,#0072b2,,0.1,-0.1,#e69f00,#e69f00,,0.1,0,#d55e00,#cc79a7,,0,-0.1,#009e73,#009e73,,A2RCYLKY072XXO,001,2020-12-11_20h24.30.683,change-localization,2020.1.2,Win32,60,,,0,37,37,37,1,,
,,-0.192382813,-0.102539063,1,0,0,1.68347,probe2,"[-0.2,-0.1]",,,,,,39,probe4,0.05,0.05,0.1,-0.1,#e69f00,#e69f00,,-0.2,-0.1,#cc79a7,#cc79a7,,0.2,0.1,#d55e00,#d55e00,,-0.2,0.2,#56b4e9,#f0e442,,0,-0.1,#0072b2,#0072b2,,A2RCYLKY072XXO,001,2020-12-11_20h24.30.683,change-localization,2020.1.2,Win32,60,,,0,38,38,38,1,,
,,0.107421875,-0.098632813,1,0,0,1.399515,probe5,"[0.1,-0.1]",,,,,,40,probe1,0.05,0.05,-0.2,0.1,#4A4A4A,#d55e00,,0.2,0.2,#009e73,#009e73,,-0.1,-0.1,#cc79a7,#cc79a7,,0.2,-0.2,#e69f00,#e69f00,,0.1,-0.1,#56b4e9,#56b4e9,,A2RCYLKY072XXO,001,2020-12-11_20h24.30.683,change-localization,2020.1.2,Win32,60,,,0,39,39,39,1,,
,,-0.09765625,0.00390625,1,0,0,1.41624,probe4,"[-0.1,0]",,,,,,41,probe4,0.05,0.05,0.2,0.1,#009e73,#009e73,,-0.2,-0.1,#0072b2,#0072b2,,-0.2,-0.2,#56b4e9,#56b4e9,,-0.1,0,#f0e442,#cc79a7,,0,-0.2,#d55e00,#d55e00,,A2RCYLKY072XXO,001,2020-12-11_20h24.30.683,change-localization,2020.1.2,Win32,60,,,0,40,40,40,1,,
,,-0.086914063,-0.212890625,1,0,0,1.766025,probe1,"[-0.1,-0.2]",,,,,,42,probe4,0.05,0.05,-0.1,-0.2,#009e73,#009e73,,-0.1,0.1,#cc79a7,#cc79a7,,0.1,0.1,#56b4e9,#56b4e9,,0,-0.2,#e69f00,#d55e00,,-0.1,0,#0072b2,#0072b2,,A2RCYLKY072XXO,001,2020-12-11_20h24.30.683,change-localization,2020.1.2,Win32,60,,,0,41,41,41,1,,
,,0.099609375,0.012695313,1,0,0,1.099635,probe2,"[0.1,0]",,,,,,43,probe1,0.05,0.05,0.2,-0.1,#e69f00,#009e73,,0.1,0,#cc79a7,#cc79a7,,-0.2,-0.2,#f0e442,#f0e442,,0.2,-0.2,#56b4e9,#56b4e9,,-0.2,0.1,#4A4A4A,#4A4A4A,,A2RCYLKY072XXO,001,2020-12-11_20h24.30.683,change-localization,2020.1.2,Win32,60,,,0,42,42,42,1,,
,,0.092773438,0.002929688,1,0,0,1.00043,probe3,"[0.1,0]",,,,,,44,probe1,0.05,0.05,-0.1,0.2,#56b4e9,#e69f00,,0.2,0.1,#4A4A4A,#4A4A4A,,0.1,0,#cc79a7,#cc79a7,,0.1,0.2,#f0e442,#f0e442,,-0.1,-0.1,#d55e00,#d55e00,,A2RCYLKY072XXO,001,2020-12-11_20h24.30.683,change-localization,2020.1.2,Win32,60,,,0,43,43,43,1,,
,,0.012695313,-0.188476563,1,0,0,5.38165,probe5,"[0,-0.2]",,,,,,45,probe3,0.05,0.05,-0.2,0.2,#0072b2,#0072b2,,-0.2,-0.1,#56b4e9,#56b4e9,,-0.1,0.1,#f0e442,#e69f00,,-0.1,0.2,#d55e00,#d55e00,,0,-0.2,#cc79a7,#cc79a7,,A2RCYLKY072XXO,001,2020-12-11_20h24.30.683,change-localization,2020.1.2,Win32,60,,,0,44,44,44,1,,
,,0.186523438,-0.005859375,1,0,0,0.96639,probe5,"[0.2,0]",,,,,,46,probe5,0.05,0.05,0.2,0.1,#0072b2,#0072b2,,0.1,0.2,#f0e442,#f0e442,,0.2,-0.2,#009e73,#009e73,,0.2,0.2,#4A4A4A,#4A4A4A,,0.2,0,#cc79a7,#e69f00,,A2RCYLKY072XXO,001,2020-12-11_20h24.30.683,change-localization,2020.1.2,Win32,60,,,0,45,45,45,1,,
,,-0.094726563,0.19140625,1,0,0,1.18202,probe4,"[-0.1,0.2]",,,,,,47,probe3,0.05,0.05,0,-0.1,#009e73,#009e73,,-0.2,0.2,#f0e442,#f0e442,,0.2,0.2,#56b4e9,#cc79a7,,-0.1,0.2,#4A4A4A,#4A4A4A,,-0.1,0.1,#e69f00,#e69f00,,A2RCYLKY072XXO,001,2020-12-11_20h24.30.683,change-localization,2020.1.2,Win32,60,,,0,46,46,46,1,,
,,-0.09765625,0.100585938,1,0,0,1.683635,probe2,"[-0.1,0.1]",,,,,,48,probe4,0.05,0.05,0.2,-0.2,#cc79a7,#cc79a7,,-0.1,0.1,#009e73,#009e73,,0.1,-0.2,#f0e442,#f0e442,,-0.2,-0.1,#d55e00,#0072b2,,-0.1,0,#56b4e9,#56b4e9,,A2RCYLKY072XXO,001,2020-12-11_20h24.30.683,change-localization,2020.1.2,Win32,60,,,0,47,47,47,1,,
,,-0.077148438,-0.092773438,1,0,0,1.033055,probe5,"[-0.1,-0.1]",,,,,,49,probe2,0.05,0.05,0,-0.2,#e69f00,#e69f00,,-0.2,0,#cc79a7,#0072b2,,-0.1,0.2,#f0e442,#f0e442,,0.1,0.2,#4A4A4A,#4A4A4A,,-0.1,-0.1,#56b4e9,#56b4e9,,A2RCYLKY072XXO,001,2020-12-11_20h24.30.683,change-localization,2020.1.2,Win32,60,,,0,48,48,48,1,,
,,-0.098632813,0.00390625,1,0,0,0.799805,probe4,"[-0.1,0]",,,,,,50,probe4,0.05,0.05,0.2,0.1,#0072b2,#0072b2,,0.1,0.1,#cc79a7,#cc79a7,,0.1,-0.2,#56b4e9,#56b4e9,,-0.1,0,#009e73,#e69f00,,0,0.1,#d55e00,#d55e00,,A2RCYLKY072XXO,001,2020-12-11_20h24.30.683,change-localization,2020.1.2,Win32,60,,,0,49,49,49,1,,
,,,,,,,,,,,,,,,,,,,,,,,,,,,,,,,,,,,,,,,,,,,,A2RCYLKY072XXO,001,2020-12-11_20h24.30.683,change-localization,2020.1.2,Win32,60,,,,,,,,c,7.013535
