key_resp.keys,key_resp.rt,mouse.x,mouse.y,mouse.leftButton,mouse.midButton,mouse.rightButton,mouse.time,mouse.clicked_name,mouse.clicked_pos,training.thisRepN,training.thisTrialN,training.thisN,training.thisIndex,training.ran,trial,answer,height,width,x1,y1,stim_color1,probe_color1,copy_color1,x2,y2,stim_color2,probe_color2,copy_color2,x3,y3,stim_color3,probe_color3,copy_color3,x4,y4,stim_color4,probe_color4,copy_color4,x5,y5,stim_color5,probe_color5,copy_color5,participant,session,date,expName,psychopyVersion,OS,frameRate,key_resp_2.keys,key_resp_2.rt,trials.thisRepN,trials.thisTrialN,trials.thisN,trials.thisIndex,trials.ran,completion_keys.keys,completion_keys.rt
c,6.629265,0.084797307,-0.101801811,1,0,0,2.68919,probe2,"[0.1,-0.1]",0,0,0,0,1,1,probe4,0.05,0.05,0.1,0.2,#0072b2,#0072b2,#0072b2,0.1,-0.1,#e69f00,#e69f00,#e69f00,-0.1,-0.2,#cc79a7,#cc79a7,#cc79a7,0.2,-0.1,#4A4A4A,#f0e442,#FFFFFF,0.2,0,#009e73,#009e73,#009e73,A2TVJTQ4VXATE6,001,2020-12-11_18h22.36.114,change-localization,2020.1.2,Win32,60,,,,,,,,,
,,0.192905416,-0.11081082,1,0,0,1.48423,probe2,"[0.2,-0.1]",0,1,1,1,1,2,probe1,0.05,0.05,0.2,0,#d55e00,#009e73,#FFFFFF,0.2,-0.1,#e69f00,#e69f00,#e69f00,0.1,0,#4A4A4A,#4A4A4A,#4A4A4A,-0.1,0.1,#56b4e9,#56b4e9,#56b4e9,-0.1,0,#cc79a7,#cc79a7,#cc79a7,A2TVJTQ4VXATE6,001,2020-12-11_18h22.36.114,change-localization,2020.1.2,Win32,60,,,,,,,,,
,,-0.120608102,-0.115315324,1,0,0,0.867355,probe4,"[-0.1,-0.1]",0,2,2,2,1,3,probe1,0.05,0.05,-0.2,-0.2,#f0e442,#009e73,#FFFFFF,0.2,-0.1,#d55e00,#d55e00,#d55e00,-0.2,0,#4A4A4A,#4A4A4A,#4A4A4A,-0.1,-0.1,#0072b2,#0072b2,#0072b2,0,-0.1,#56b4e9,#56b4e9,#56b4e9,A2TVJTQ4VXATE6,001,2020-12-11_18h22.36.114,change-localization,2020.1.2,Win32,60,,,,,,,,,
,,0.188400912,0.200900896,1,0,0,1.24067,probe1,"[0.2,0.2]",0,3,3,3,1,4,probe1,0.05,0.05,0.2,0.2,#d55e00,#56b4e9,#FFFFFF,-0.2,0.2,#f0e442,#f0e442,#f0e442,0.2,-0.2,#0072b2,#0072b2,#0072b2,-0.2,0,#cc79a7,#cc79a7,#cc79a7,-0.2,0.1,#4A4A4A,#4A4A4A,#4A4A4A,A2TVJTQ4VXATE6,001,2020-12-11_18h22.36.114,change-localization,2020.1.2,Win32,60,,,,,,,,,
,,-0.003490983,0.098198165,1,0,0,0.72076,probe3,"[0,0.1]",0,4,4,4,1,5,probe3,0.05,0.05,-0.2,0.1,#56b4e9,#56b4e9,#56b4e9,0,0.2,#009e73,#009e73,#009e73,0,0.1,#0072b2,#cc79a7,#FFFFFF,-0.1,-0.1,#4A4A4A,#4A4A4A,#4A4A4A,0.2,0,#f0e442,#f0e442,#f0e442,A2TVJTQ4VXATE6,001,2020-12-11_18h22.36.114,change-localization,2020.1.2,Win32,60,,,,,,,,,
,,-0.031418911,0.121621616,1,0,0,0.68436,probe2,"[0,0.1]",0,5,5,5,1,6,probe5,0.05,0.05,-0.1,0.1,#f0e442,#f0e442,#f0e442,0,0.1,#009e73,#009e73,#009e73,-0.2,0,#4A4A4A,#4A4A4A,#4A4A4A,0,-0.2,#d55e00,#d55e00,#d55e00,0.1,0,#cc79a7,#0072b2,#FFFFFF,A2TVJTQ4VXATE6,001,2020-12-11_18h22.36.114,change-localization,2020.1.2,Win32,60,,,,,,,,,
,,-0.122409876,-0.222522588,1,0,0,1.135865,probe3,"[-0.1,-0.2]",0,6,6,6,1,7,probe2,0.05,0.05,-0.2,-0.2,#4A4A4A,#4A4A4A,#4A4A4A,0.1,0.2,#0072b2,#d55e00,#FFFFFF,-0.1,-0.2,#f0e442,#f0e442,#f0e442,-0.2,0.2,#009e73,#009e73,#009e73,0.2,0.2,#e69f00,#e69f00,#e69f00,A2TVJTQ4VXATE6,001,2020-12-11_18h22.36.114,change-localization,2020.1.2,Win32,60,,,,,,,,,
,,-0.098085579,-0.008108116,1,0,0,0.888815,probe2,"[-0.1,0]",0,7,7,7,1,8,probe1,0.05,0.05,0.1,-0.2,#009e73,#f0e442,#FFFFFF,-0.1,0,#d55e00,#d55e00,#d55e00,-0.1,0.1,#4A4A4A,#4A4A4A,#4A4A4A,-0.2,0,#cc79a7,#cc79a7,#cc79a7,0.2,0,#e69f00,#e69f00,#e69f00,A2TVJTQ4VXATE6,001,2020-12-11_18h22.36.114,change-localization,2020.1.2,Win32,60,,,,,,,,,
,,0.18659911,0.196396392,1,0,0,0.81692,probe4,"[0.2,0.2]",0,8,8,8,1,9,probe1,0.05,0.05,0.1,-0.2,#0072b2,#e69f00,#FFFFFF,-0.1,0.2,#f0e442,#f0e442,#f0e442,-0.2,0.1,#d55e00,#d55e00,#d55e00,0.2,0.2,#cc79a7,#cc79a7,#cc79a7,0.1,0.1,#56b4e9,#56b4e9,#56b4e9,A2TVJTQ4VXATE6,001,2020-12-11_18h22.36.114,change-localization,2020.1.2,Win32,60,,,,,,,,,
,,0.087500009,-0.211711722,1,0,0,1.23493,probe4,"[0.1,-0.2]",0,9,9,9,1,10,probe1,0.05,0.05,-0.1,-0.1,#4A4A4A,#f0e442,#FFFFFF,0,0.2,#cc79a7,#cc79a7,#cc79a7,0.2,-0.2,#e69f00,#e69f00,#e69f00,0.1,-0.2,#009e73,#009e73,#009e73,0.1,0.1,#d55e00,#d55e00,#d55e00,A2TVJTQ4VXATE6,001,2020-12-11_18h22.36.114,change-localization,2020.1.2,Win32,60,,,,,,,,,
,,0.002815323,0.189189185,1,0,0,1.100435,probe5,"[0,0.2]",,,,,,1,probe2,0.05,0.05,-0.2,0.2,#009e73,#009e73,,-0.1,0.2,#f0e442,#e69f00,,-0.1,0,#0072b2,#0072b2,,0,-0.2,#cc79a7,#cc79a7,,0,0.2,#d55e00,#d55e00,,A2TVJTQ4VXATE6,001,2020-12-11_18h22.36.114,change-localization,2020.1.2,Win32,60,c,4.599395,0,0,0,0,1,,
,,0.207319886,0.104504499,1,0,0,0.766375,probe2,"[0.2,0.1]",,,,,,2,probe5,0.05,0.05,0,0.1,#009e73,#009e73,,0.2,0.1,#4A4A4A,#4A4A4A,,-0.1,-0.1,#cc79a7,#cc79a7,,0.1,0.1,#d55e00,#d55e00,,0,-0.1,#56b4e9,#e69f00,,A2TVJTQ4VXATE6,001,2020-12-11_18h22.36.114,change-localization,2020.1.2,Win32,60,,,0,1,1,1,1,,
,,-0.083671164,0.198198194,1,0,0,1.80189,probe5,"[-0.1,0.2]",,,,,,3,probe4,0.05,0.05,0.1,-0.1,#56b4e9,#56b4e9,,0.2,0,#f0e442,#f0e442,,0.2,-0.1,#e69f00,#e69f00,,-0.1,0.1,#4A4A4A,#009e73,,-0.1,0.2,#d55e00,#d55e00,,A2TVJTQ4VXATE6,001,2020-12-11_18h22.36.114,change-localization,2020.1.2,Win32,60,,,0,2,2,2,1,,
,,0.017229738,0.192792761,1,0,0,2.327735,probe3,"[0,0.2]",,,,,,4,probe5,0.05,0.05,0.2,0,#56b4e9,#56b4e9,,-0.2,-0.2,#cc79a7,#cc79a7,,0,0.2,#4A4A4A,#4A4A4A,,0.2,-0.2,#e69f00,#e69f00,,-0.2,0,#f0e442,#009e73,,A2TVJTQ4VXATE6,001,2020-12-11_18h22.36.114,change-localization,2020.1.2,Win32,60,,,0,3,3,3,1,,
,,-0.105292786,-0.103603613,1,0,0,1.750775,probe3,"[-0.1,-0.1]",,,,,,5,probe3,0.05,0.05,-0.2,0.1,#4A4A4A,#4A4A4A,,0.2,0.2,#009e73,#009e73,,-0.1,-0.1,#0072b2,#f0e442,,0.2,0,#cc79a7,#cc79a7,,0.1,0.1,#e69f00,#e69f00,,A2TVJTQ4VXATE6,001,2020-12-11_18h22.36.114,change-localization,2020.1.2,Win32,60,,,0,4,4,4,1,,
,,-0.023310803,0.2045045,1,0,0,5.002735,probe4,"[0,0.2]",,,,,,6,probe4,0.05,0.05,-0.1,0.1,#d55e00,#d55e00,,-0.2,0.2,#0072b2,#0072b2,,0,-0.1,#e69f00,#e69f00,,0,0.2,#56b4e9,#4A4A4A,,-0.2,-0.2,#009e73,#009e73,,A2TVJTQ4VXATE6,001,2020-12-11_18h22.36.114,change-localization,2020.1.2,Win32,60,,,0,5,5,5,1,,
,,0.194707218,0.20180177,1,0,0,0.900505,probe4,"[0.2,0.2]",,,,,,7,probe4,0.05,0.05,0.2,-0.1,#56b4e9,#56b4e9,,-0.1,-0.1,#e69f00,#e69f00,,-0.2,0.2,#009e73,#009e73,,0.2,0.2,#cc79a7,#4A4A4A,,0.2,-0.2,#d55e00,#d55e00,,A2TVJTQ4VXATE6,001,2020-12-11_18h22.36.114,change-localization,2020.1.2,Win32,60,,,0,6,6,6,1,,
,,-0.198986454,0.09369366,1,0,0,2.424275,probe1,"[-0.2,0.1]",,,,,,8,probe4,0.05,0.05,-0.2,0.1,#e69f00,#e69f00,,0.1,0.2,#cc79a7,#cc79a7,,0.2,0.1,#4A4A4A,#4A4A4A,,-0.2,0.2,#56b4e9,#d55e00,,0.2,-0.1,#0072b2,#0072b2,,A2TVJTQ4VXATE6,001,2020-12-11_18h22.36.114,change-localization,2020.1.2,Win32,60,,,0,7,7,7,1,,
,,0.187500011,0.191891887,1,0,0,1.284835,probe5,"[0.2,0.2]",,,,,,9,probe5,0.05,0.05,-0.1,0,#4A4A4A,#4A4A4A,,0.1,0.1,#56b4e9,#56b4e9,,-0.2,0.1,#009e73,#009e73,,0.2,0.1,#cc79a7,#cc79a7,,0.2,0.2,#d55e00,#f0e442,,A2TVJTQ4VXATE6,001,2020-12-11_18h22.36.114,change-localization,2020.1.2,Win32,60,,,0,8,8,8,1,,
,,-0.066554047,0.102702669,1,0,0,0.664015,probe3,"[0,0.1]",,,,,,10,probe3,0.05,0.05,0.2,0.2,#f0e442,#f0e442,,0.1,-0.1,#e69f00,#e69f00,,0,0.1,#cc79a7,#4A4A4A,,-0.2,0.1,#56b4e9,#56b4e9,,0.2,0,#0072b2,#0072b2,,A2TVJTQ4VXATE6,001,2020-12-11_18h22.36.114,change-localization,2020.1.2,Win32,60,,,0,9,9,9,1,,
,,0.087500009,-0.11081082,1,0,0,0.82278,probe3,"[0.1,-0.1]",,,,,,11,probe5,0.05,0.05,0.2,0.2,#4A4A4A,#4A4A4A,,0.1,0.2,#0072b2,#0072b2,,0.1,-0.1,#cc79a7,#cc79a7,,0,-0.2,#009e73,#009e73,,0.1,-0.2,#f0e442,#d55e00,,A2TVJTQ4VXATE6,001,2020-12-11_18h22.36.114,change-localization,2020.1.2,Win32,60,,,0,10,10,10,1,,
,,0.080292802,0.004504497,1,0,0,0.667995,probe4,"[0.1,0]",,,,,,12,probe4,0.05,0.05,-0.1,-0.1,#009e73,#009e73,,-0.1,0,#56b4e9,#56b4e9,,-0.1,-0.2,#0072b2,#0072b2,,0.1,0,#d55e00,#f0e442,,0,-0.1,#cc79a7,#cc79a7,,A2TVJTQ4VXATE6,001,2020-12-11_18h22.36.114,change-localization,2020.1.2,Win32,60,,,0,11,11,11,1,,
,,-0.219707202,0.208108104,1,0,0,1.00092,probe4,"[-0.2,0.2]",,,,,,13,probe4,0.05,0.05,0,-0.1,#f0e442,#f0e442,,0.1,-0.1,#d55e00,#d55e00,,0.1,0.1,#0072b2,#0072b2,,-0.2,0.2,#cc79a7,#4A4A4A,,0.1,0.2,#009e73,#009e73,,A2TVJTQ4VXATE6,001,2020-12-11_18h22.36.114,change-localization,2020.1.2,Win32,60,,,0,12,12,12,1,,
,,0.082094604,0.190990986,1,0,0,0.970135,probe5,"[0.1,0.2]",,,,,,14,probe5,0.05,0.05,0,0.2,#cc79a7,#cc79a7,,0,-0.1,#4A4A4A,#4A4A4A,,-0.2,0,#56b4e9,#56b4e9,,0.1,0.1,#0072b2,#0072b2,,0.1,0.2,#009e73,#e69f00,,A2TVJTQ4VXATE6,001,2020-12-11_18h22.36.114,change-localization,2020.1.2,Win32,60,,,0,13,13,13,1,,
,,0.212725236,0.099099093,1,0,0,0.751135,probe3,"[0.2,0.1]",,,,,,15,probe3,0.05,0.05,0.2,0.2,#cc79a7,#cc79a7,,0,0.2,#56b4e9,#56b4e9,,0.2,0.1,#d55e00,#4A4A4A,,0.1,-0.1,#f0e442,#f0e442,,0.2,-0.1,#0072b2,#0072b2,,A2TVJTQ4VXATE6,001,2020-12-11_18h22.36.114,change-localization,2020.1.2,Win32,60,,,0,14,14,14,1,,
,,0.100112622,0.1063063,1,0,0,0.619555,probe3,"[0.1,0.1]",,,,,,16,probe3,0.05,0.05,-0.2,-0.1,#f0e442,#f0e442,,-0.2,0.2,#d55e00,#d55e00,,0.1,0.1,#009e73,#4A4A4A,,-0.2,0.1,#56b4e9,#56b4e9,,0,-0.1,#cc79a7,#cc79a7,,A2TVJTQ4VXATE6,001,2020-12-11_18h22.36.114,change-localization,2020.1.2,Win32,60,,,0,15,15,15,1,,
,,0.010022531,0.101801796,1,0,0,2.769065,probe3,"[0,0.1]",,,,,,17,probe3,0.05,0.05,0.2,-0.1,#cc79a7,#cc79a7,,0,-0.2,#0072b2,#0072b2,,0,0.1,#4A4A4A,#e69f00,,-0.2,-0.1,#f0e442,#f0e442,,-0.1,-0.1,#009e73,#009e73,,A2TVJTQ4VXATE6,001,2020-12-11_18h22.36.114,change-localization,2020.1.2,Win32,60,,,0,16,16,16,1,,
,,0.193806372,0.005405398,1,0,0,1.201305,probe3,"[0.2,0]",,,,,,18,probe3,0.05,0.05,-0.1,0.1,#d55e00,#d55e00,,-0.1,0.2,#e69f00,#e69f00,,0.2,0,#009e73,#0072b2,,0.1,-0.1,#cc79a7,#cc79a7,,-0.2,0.2,#4A4A4A,#4A4A4A,,A2TVJTQ4VXATE6,001,2020-12-11_18h22.36.114,change-localization,2020.1.2,Win32,60,,,0,17,17,17,1,,
,,-0.090878344,0.099999994,1,0,0,1.12933,probe3,"[-0.1,0.1]",,,,,,19,probe3,0.05,0.05,-0.1,0.2,#0072b2,#0072b2,,0,-0.1,#4A4A4A,#4A4A4A,,-0.1,0.1,#e69f00,#009e73,,0.2,0.1,#d55e00,#d55e00,,-0.2,0.1,#cc79a7,#cc79a7,,A2TVJTQ4VXATE6,001,2020-12-11_18h22.36.114,change-localization,2020.1.2,Win32,60,,,0,18,18,18,1,,
,,-0.001689181,-0.105405469,1,0,0,0.969135,probe4,"[0,-0.1]",,,,,,20,probe4,0.05,0.05,0.2,0,#56b4e9,#56b4e9,,-0.1,0.2,#009e73,#009e73,,-0.2,-0.2,#e69f00,#e69f00,,0,-0.1,#f0e442,#cc79a7,,-0.1,0,#4A4A4A,#4A4A4A,,A2TVJTQ4VXATE6,001,2020-12-11_18h22.36.114,change-localization,2020.1.2,Win32,60,,,0,19,19,19,1,,
,,0.205518029,0.099999994,1,0,0,1.88398,probe5,"[0.2,0.1]",,,,,,21,probe3,0.05,0.05,-0.1,0.1,#0072b2,#0072b2,,-0.1,0.2,#009e73,#009e73,,0.2,0,#56b4e9,#4A4A4A,,-0.2,0.2,#f0e442,#f0e442,,0.2,0.1,#d55e00,#d55e00,,A2TVJTQ4VXATE6,001,2020-12-11_18h22.36.114,change-localization,2020.1.2,Win32,60,,,0,20,20,20,1,,
,,0.185698209,-0.035135143,1,0,0,0.798565,probe2,"[0.2,0]",,,,,,22,probe4,0.05,0.05,0.2,-0.1,#d55e00,#d55e00,,0.2,0,#56b4e9,#56b4e9,,0.1,-0.2,#cc79a7,#cc79a7,,-0.2,-0.1,#4A4A4A,#009e73,,0,-0.2,#e69f00,#e69f00,,A2TVJTQ4VXATE6,001,2020-12-11_18h22.36.114,change-localization,2020.1.2,Win32,60,,,0,21,21,21,1,,
,,0.110923433,0.084684651,1,0,0,5.721775,probe1,"[0.1,0.1]",,,,,,23,probe4,0.05,0.05,0.1,0.1,#56b4e9,#56b4e9,,-0.2,-0.1,#0072b2,#0072b2,,0.2,0,#d55e00,#d55e00,,-0.2,-0.2,#cc79a7,#009e73,,0.1,-0.2,#4A4A4A,#4A4A4A,,A2TVJTQ4VXATE6,001,2020-12-11_18h22.36.114,change-localization,2020.1.2,Win32,60,,,0,22,22,22,1,,
,,0.199211723,0.202702698,1,0,0,1.002285,probe2,"[0.2,0.2]",,,,,,24,probe2,0.05,0.05,-0.1,-0.2,#4A4A4A,#4A4A4A,,0.2,0.2,#d55e00,#e69f00,,0.1,-0.1,#f0e442,#f0e442,,0.1,0.1,#56b4e9,#56b4e9,,-0.2,0.1,#cc79a7,#cc79a7,,A2TVJTQ4VXATE6,001,2020-12-11_18h22.36.114,change-localization,2020.1.2,Win32,60,,,0,23,23,23,1,,
,,0.201914425,-0.00270271,1,0,0,0.855995,probe3,"[0.2,0]",,,,,,25,probe3,0.05,0.05,-0.2,-0.2,#f0e442,#f0e442,,-0.1,-0.1,#4A4A4A,#4A4A4A,,0.2,0,#d55e00,#cc79a7,,0,0.2,#0072b2,#0072b2,,-0.2,0.1,#009e73,#009e73,,A2TVJTQ4VXATE6,001,2020-12-11_18h22.36.114,change-localization,2020.1.2,Win32,60,,,0,24,24,24,1,,
,,-0.206193689,0.000900893,1,0,0,2.449545,probe2,"[-0.2,0]",,,,,,26,probe3,0.05,0.05,0.1,-0.1,#e69f00,#e69f00,,-0.2,0,#56b4e9,#56b4e9,,-0.1,-0.2,#009e73,#d55e00,,-0.2,-0.1,#4A4A4A,#4A4A4A,,0.1,0,#cc79a7,#cc79a7,,A2TVJTQ4VXATE6,001,2020-12-11_18h22.36.114,change-localization,2020.1.2,Win32,60,,,0,25,25,25,1,,
,,-0.117905372,-0.093693703,1,0,0,1.400715,probe3,"[-0.1,-0.1]",,,,,,27,probe5,0.05,0.05,-0.1,-0.2,#009e73,#009e73,,0.2,0,#cc79a7,#cc79a7,,-0.1,-0.1,#e69f00,#e69f00,,0.1,0.1,#d55e00,#d55e00,,-0.2,-0.1,#4A4A4A,#0072b2,,A2TVJTQ4VXATE6,001,2020-12-11_18h22.36.114,change-localization,2020.1.2,Win32,60,,,0,26,26,26,1,,
,,-0.126914381,0.207207203,1,0,0,1.08669,probe1,"[-0.1,0.2]",,,,,,28,probe5,0.05,0.05,-0.1,0.2,#009e73,#009e73,,-0.2,0.1,#56b4e9,#56b4e9,,0,-0.2,#d55e00,#d55e00,,0.1,0,#0072b2,#0072b2,,0.1,0.1,#f0e442,#e69f00,,A2TVJTQ4VXATE6,001,2020-12-11_18h22.36.114,change-localization,2020.1.2,Win32,60,,,0,27,27,27,1,,
,,0.09831082,-0.082882947,1,0,0,5.17027,probe1,"[0.1,-0.1]",,,,,,29,probe1,0.05,0.05,0.1,-0.1,#4A4A4A,#56b4e9,,-0.2,0.2,#e69f00,#e69f00,,-0.1,-0.1,#f0e442,#f0e442,,0.1,0.2,#0072b2,#0072b2,,-0.1,-0.2,#cc79a7,#cc79a7,,A2TVJTQ4VXATE6,001,2020-12-11_18h22.36.114,change-localization,2020.1.2,Win32,60,,,0,28,28,28,1,,
,,-0.093581074,-0.200900911,1,0,0,6.288965,probe2,"[-0.1,-0.2]",,,,,,30,probe2,0.05,0.05,0.1,0.2,#f0e442,#f0e442,,-0.1,-0.2,#d55e00,#4A4A4A,,0,-0.2,#cc79a7,#cc79a7,,0.1,-0.2,#0072b2,#0072b2,,-0.2,0,#009e73,#009e73,,A2TVJTQ4VXATE6,001,2020-12-11_18h22.36.114,change-localization,2020.1.2,Win32,60,,,0,29,29,29,1,,
,,-0.094481975,-0.084684693,1,0,0,0.916165,probe5,"[-0.1,-0.1]",,,,,,31,probe5,0.05,0.05,0,-0.2,#d55e00,#d55e00,,0.1,0,#e69f00,#e69f00,,0.1,0.2,#f0e442,#f0e442,,-0.2,-0.1,#cc79a7,#cc79a7,,-0.1,-0.1,#009e73,#4A4A4A,,A2TVJTQ4VXATE6,001,2020-12-11_18h22.36.114,change-localization,2020.1.2,Win32,60,,,0,30,30,30,1,,
,,0.210923435,0.203603599,1,0,0,1.03828,probe1,"[0.2,0.2]",,,,,,32,probe3,0.05,0.05,0.2,0.2,#56b4e9,#56b4e9,,-0.1,-0.1,#009e73,#009e73,,0.2,0.1,#cc79a7,#0072b2,,-0.2,0.1,#4A4A4A,#4A4A4A,,-0.2,-0.1,#f0e442,#f0e442,,A2TVJTQ4VXATE6,001,2020-12-11_18h22.36.114,change-localization,2020.1.2,Win32,60,,,0,31,31,31,1,,
,,-0.076463957,-0.082882947,1,0,0,0.81586,probe1,"[-0.1,-0.1]",,,,,,33,probe3,0.05,0.05,-0.1,-0.1,#0072b2,#0072b2,,0.1,0.1,#cc79a7,#cc79a7,,-0.1,0.1,#f0e442,#009e73,,0,-0.2,#56b4e9,#56b4e9,,0.1,0.2,#e69f00,#e69f00,,A2TVJTQ4VXATE6,001,2020-12-11_18h22.36.114,change-localization,2020.1.2,Win32,60,,,0,32,32,32,1,,
,,0.207319886,-0.192792803,1,0,0,1.36953,probe4,"[0.2,-0.2]",,,,,,34,probe5,0.05,0.05,0.2,0.1,#e69f00,#e69f00,,-0.2,0.1,#cc79a7,#cc79a7,,0.1,-0.2,#0072b2,#0072b2,,0.2,-0.2,#d55e00,#d55e00,,-0.2,0,#56b4e9,#009e73,,A2TVJTQ4VXATE6,001,2020-12-11_18h22.36.114,change-localization,2020.1.2,Win32,60,,,0,33,33,33,1,,
,,0.207319886,-0.08108109,1,0,0,0.729825,probe2,"[0.2,-0.1]",,,,,,35,probe2,0.05,0.05,0.2,0,#56b4e9,#56b4e9,,0.2,-0.1,#e69f00,#009e73,,0.1,-0.1,#f0e442,#f0e442,,0,0.2,#d55e00,#d55e00,,0.1,0.2,#cc79a7,#cc79a7,,A2TVJTQ4VXATE6,001,2020-12-11_18h22.36.114,change-localization,2020.1.2,Win32,60,,,0,34,34,34,1,,
,,-0.007995488,0.100900895,1,0,0,1.133865,probe1,"[0,0.1]",,,,,,36,probe3,0.05,0.05,0,0.1,#4A4A4A,#4A4A4A,,0.2,0.1,#009e73,#009e73,,-0.2,-0.1,#f0e442,#56b4e9,,-0.1,-0.1,#e69f00,#e69f00,,0.1,0,#0072b2,#0072b2,,A2TVJTQ4VXATE6,001,2020-12-11_18h22.36.114,change-localization,2020.1.2,Win32,60,,,0,35,35,35,1,,
,,0.092004514,0.090990985,1,0,0,0.71674,probe2,"[0.1,0.1]",,,,,,37,probe5,0.05,0.05,-0.2,0.1,#e69f00,#e69f00,,0.1,0.1,#0072b2,#0072b2,,-0.2,0,#d55e00,#d55e00,,-0.1,0.2,#cc79a7,#cc79a7,,0.1,0,#009e73,#f0e442,,A2TVJTQ4VXATE6,001,2020-12-11_18h22.36.114,change-localization,2020.1.2,Win32,60,,,0,36,36,36,1,,
,,0.092905415,-0.028828892,1,0,0,0.73544,probe4,"[0.1,0]",,,,,,38,probe4,0.05,0.05,0.2,-0.2,#4A4A4A,#4A4A4A,,0.2,0,#0072b2,#0072b2,,0.1,-0.1,#e69f00,#e69f00,,0.1,0,#d55e00,#cc79a7,,0,-0.1,#009e73,#009e73,,A2TVJTQ4VXATE6,001,2020-12-11_18h22.36.114,change-localization,2020.1.2,Win32,60,,,0,37,37,37,1,,
,,-0.191779274,0.18468468,1,0,0,1.035535,probe4,"[-0.2,0.2]",,,,,,39,probe4,0.05,0.05,0.1,-0.1,#e69f00,#e69f00,,-0.2,-0.1,#cc79a7,#cc79a7,,0.2,0.1,#d55e00,#d55e00,,-0.2,0.2,#56b4e9,#f0e442,,0,-0.1,#0072b2,#0072b2,,A2TVJTQ4VXATE6,001,2020-12-11_18h22.36.114,change-localization,2020.1.2,Win32,60,,,0,38,38,38,1,,
,,0.104617127,-0.100900965,1,0,0,0.93493,probe5,"[0.1,-0.1]",,,,,,40,probe1,0.05,0.05,-0.2,0.1,#4A4A4A,#d55e00,,0.2,0.2,#009e73,#009e73,,-0.1,-0.1,#cc79a7,#cc79a7,,0.2,-0.2,#e69f00,#e69f00,,0.1,-0.1,#56b4e9,#56b4e9,,A2TVJTQ4VXATE6,001,2020-12-11_18h22.36.114,change-localization,2020.1.2,Win32,60,,,0,39,39,39,1,,
,,-0.107995489,0.00270264,1,0,0,1.484305,probe4,"[-0.1,0]",,,,,,41,probe4,0.05,0.05,0.2,0.1,#009e73,#009e73,,-0.2,-0.1,#0072b2,#0072b2,,-0.2,-0.2,#56b4e9,#56b4e9,,-0.1,0,#f0e442,#cc79a7,,0,-0.2,#d55e00,#d55e00,,A2TVJTQ4VXATE6,001,2020-12-11_18h22.36.114,change-localization,2020.1.2,Win32,60,,,0,40,40,40,1,,
,,-0.007995488,-0.200000065,1,0,0,1.30253,probe4,"[0,-0.2]",,,,,,42,probe4,0.05,0.05,-0.1,-0.2,#009e73,#009e73,,-0.1,0.1,#cc79a7,#cc79a7,,0.1,0.1,#56b4e9,#56b4e9,,0,-0.2,#e69f00,#d55e00,,-0.1,0,#0072b2,#0072b2,,A2TVJTQ4VXATE6,001,2020-12-11_18h22.36.114,change-localization,2020.1.2,Win32,60,,,0,41,41,41,1,,
,,0.097409919,-0.00270271,1,0,0,1.252075,probe2,"[0.1,0]",,,,,,43,probe1,0.05,0.05,0.2,-0.1,#e69f00,#009e73,,0.1,0,#cc79a7,#cc79a7,,-0.2,-0.2,#f0e442,#f0e442,,0.2,-0.2,#56b4e9,#56b4e9,,-0.2,0.1,#4A4A4A,#4A4A4A,,A2TVJTQ4VXATE6,001,2020-12-11_18h22.36.114,change-localization,2020.1.2,Win32,60,,,0,42,42,42,1,,
,,-0.097184678,-0.11081082,1,0,0,1.31759,probe5,"[-0.1,-0.1]",,,,,,44,probe1,0.05,0.05,-0.1,0.2,#56b4e9,#e69f00,,0.2,0.1,#4A4A4A,#4A4A4A,,0.1,0,#cc79a7,#cc79a7,,0.1,0.2,#f0e442,#f0e442,,-0.1,-0.1,#d55e00,#d55e00,,A2TVJTQ4VXATE6,001,2020-12-11_18h22.36.114,change-localization,2020.1.2,Win32,60,,,0,43,43,43,1,,
,,0.00912163,-0.213513579,1,0,0,1.034525,probe5,"[0,-0.2]",,,,,,45,probe3,0.05,0.05,-0.2,0.2,#0072b2,#0072b2,,-0.2,-0.1,#56b4e9,#56b4e9,,-0.1,0.1,#f0e442,#e69f00,,-0.1,0.2,#d55e00,#d55e00,,0,-0.2,#cc79a7,#cc79a7,,A2TVJTQ4VXATE6,001,2020-12-11_18h22.36.114,change-localization,2020.1.2,Win32,60,,,0,44,44,44,1,,
,,0.192004515,0.116216183,1,0,0,1.148795,probe1,"[0.2,0.1]",,,,,,46,probe5,0.05,0.05,0.2,0.1,#0072b2,#0072b2,,0.1,0.2,#f0e442,#f0e442,,0.2,-0.2,#009e73,#009e73,,0.2,0.2,#4A4A4A,#4A4A4A,,0.2,0,#cc79a7,#e69f00,,A2TVJTQ4VXATE6,001,2020-12-11_18h22.36.114,change-localization,2020.1.2,Win32,60,,,0,45,45,45,1,,
,,0.213626137,0.198198194,1,0,0,0.986475,probe3,"[0.2,0.2]",,,,,,47,probe3,0.05,0.05,0,-0.1,#009e73,#009e73,,-0.2,0.2,#f0e442,#f0e442,,0.2,0.2,#56b4e9,#cc79a7,,-0.1,0.2,#4A4A4A,#4A4A4A,,-0.1,0.1,#e69f00,#e69f00,,A2TVJTQ4VXATE6,001,2020-12-11_18h22.36.114,change-localization,2020.1.2,Win32,60,,,0,46,46,46,1,,
,,-0.214301797,-0.103603613,1,0,0,1.16747,probe4,"[-0.2,-0.1]",,,,,,48,probe4,0.05,0.05,0.2,-0.2,#cc79a7,#cc79a7,,-0.1,0.1,#009e73,#009e73,,0.1,-0.2,#f0e442,#f0e442,,-0.2,-0.1,#d55e00,#0072b2,,-0.1,0,#56b4e9,#56b4e9,,A2TVJTQ4VXATE6,001,2020-12-11_18h22.36.114,change-localization,2020.1.2,Win32,60,,,0,47,47,47,1,,
,,-0.007094587,-0.191891902,1,0,0,1.550565,probe1,"[0,-0.2]",,,,,,49,probe2,0.05,0.05,0,-0.2,#e69f00,#e69f00,,-0.2,0,#cc79a7,#0072b2,,-0.1,0.2,#f0e442,#f0e442,,0.1,0.2,#4A4A4A,#4A4A4A,,-0.1,-0.1,#56b4e9,#56b4e9,,A2TVJTQ4VXATE6,001,2020-12-11_18h22.36.114,change-localization,2020.1.2,Win32,60,,,0,48,48,48,1,,
,,-0.107995489,-0.009909918,1,0,0,1.00043,probe4,"[-0.1,0]",,,,,,50,probe4,0.05,0.05,0.2,0.1,#0072b2,#0072b2,,0.1,0.1,#cc79a7,#cc79a7,,0.1,-0.2,#56b4e9,#56b4e9,,-0.1,0,#009e73,#e69f00,,0,0.1,#d55e00,#d55e00,,A2TVJTQ4VXATE6,001,2020-12-11_18h22.36.114,change-localization,2020.1.2,Win32,60,,,0,49,49,49,1,,
,,,,,,,,,,,,,,,,,,,,,,,,,,,,,,,,,,,,,,,,,,,,A2TVJTQ4VXATE6,001,2020-12-11_18h22.36.114,change-localization,2020.1.2,Win32,60,,,,,,,,c,4.076855
