key_resp.keys,key_resp.rt,mouse.x,mouse.y,mouse.leftButton,mouse.midButton,mouse.rightButton,mouse.time,mouse.clicked_name,mouse.clicked_pos,training.thisRepN,training.thisTrialN,training.thisN,training.thisIndex,training.ran,trial,answer,height,width,x1,y1,stim_color1,probe_color1,copy_color1,x2,y2,stim_color2,probe_color2,copy_color2,x3,y3,stim_color3,probe_color3,copy_color3,x4,y4,stim_color4,probe_color4,copy_color4,x5,y5,stim_color5,probe_color5,copy_color5,participant,session,date,expName,psychopyVersion,OS,frameRate,key_resp_2.keys,key_resp_2.rt,trials.thisRepN,trials.thisTrialN,trials.thisN,trials.thisIndex,trials.ran,completion_keys.keys,completion_keys.rt
c,9.48137,0.2,-0.087777778,1,0,0,2.111425,probe4,"[0.2,-0.1]",0,0,0,0,1,1,probe4,0.05,0.05,0.1,0.2,#0072b2,#0072b2,#0072b2,0.1,-0.1,#e69f00,#e69f00,#e69f00,-0.1,-0.2,#cc79a7,#cc79a7,#cc79a7,0.2,-0.1,#4A4A4A,#f0e442,#FFFFFF,0.2,0,#009e73,#009e73,#009e73,A2YTQDLACTLIBA,001,2020-12-11_17h32.19.317,change-localization,2020.1.2,Win32,60,,,,,,,,,
,,0.117777778,0.018888889,1,0,0,2.200145,probe3,"[0.1,0]",0,1,1,1,1,2,probe1,0.05,0.05,0.2,0,#d55e00,#009e73,#FFFFFF,0.2,-0.1,#e69f00,#e69f00,#e69f00,0.1,0,#4A4A4A,#4A4A4A,#4A4A4A,-0.1,0.1,#56b4e9,#56b4e9,#56b4e9,-0.1,0,#cc79a7,#cc79a7,#cc79a7,A2YTQDLACTLIBA,001,2020-12-11_17h32.19.317,change-localization,2020.1.2,Win32,60,,,,,,,,,
,,-0.116666667,-0.088888889,1,0,0,2.245635,probe4,"[-0.1,-0.1]",0,2,2,2,1,3,probe1,0.05,0.05,-0.2,-0.2,#f0e442,#009e73,#FFFFFF,0.2,-0.1,#d55e00,#d55e00,#d55e00,-0.2,0,#4A4A4A,#4A4A4A,#4A4A4A,-0.1,-0.1,#0072b2,#0072b2,#0072b2,0,-0.1,#56b4e9,#56b4e9,#56b4e9,A2YTQDLACTLIBA,001,2020-12-11_17h32.19.317,change-localization,2020.1.2,Win32,60,,,,,,,,,
,,0.221111111,0.192222222,1,0,0,2.08852,probe1,"[0.2,0.2]",0,3,3,3,1,4,probe1,0.05,0.05,0.2,0.2,#d55e00,#56b4e9,#FFFFFF,-0.2,0.2,#f0e442,#f0e442,#f0e442,0.2,-0.2,#0072b2,#0072b2,#0072b2,-0.2,0,#cc79a7,#cc79a7,#cc79a7,-0.2,0.1,#4A4A4A,#4A4A4A,#4A4A4A,A2YTQDLACTLIBA,001,2020-12-11_17h32.19.317,change-localization,2020.1.2,Win32,60,,,,,,,,,
,,0.003333333,0.08,1,0,0,1.00638,probe3,"[0,0.1]",0,4,4,4,1,5,probe3,0.05,0.05,-0.2,0.1,#56b4e9,#56b4e9,#56b4e9,0,0.2,#009e73,#009e73,#009e73,0,0.1,#0072b2,#cc79a7,#FFFFFF,-0.1,-0.1,#4A4A4A,#4A4A4A,#4A4A4A,0.2,0,#f0e442,#f0e442,#f0e442,A2YTQDLACTLIBA,001,2020-12-11_17h32.19.317,change-localization,2020.1.2,Win32,60,,,,,,,,,
,,0.011111111,-0.22,1,0,0,2.456875,probe4,"[0,-0.2]",0,5,5,5,1,6,probe5,0.05,0.05,-0.1,0.1,#f0e442,#f0e442,#f0e442,0,0.1,#009e73,#009e73,#009e73,-0.2,0,#4A4A4A,#4A4A4A,#4A4A4A,0,-0.2,#d55e00,#d55e00,#d55e00,0.1,0,#cc79a7,#0072b2,#FFFFFF,A2YTQDLACTLIBA,001,2020-12-11_17h32.19.317,change-localization,2020.1.2,Win32,60,,,,,,,,,
,,0.114444444,0.184444444,1,0,0,1.30372,probe2,"[0.1,0.2]",0,6,6,6,1,7,probe2,0.05,0.05,-0.2,-0.2,#4A4A4A,#4A4A4A,#4A4A4A,0.1,0.2,#0072b2,#d55e00,#FFFFFF,-0.1,-0.2,#f0e442,#f0e442,#f0e442,-0.2,0.2,#009e73,#009e73,#009e73,0.2,0.2,#e69f00,#e69f00,#e69f00,A2YTQDLACTLIBA,001,2020-12-11_17h32.19.317,change-localization,2020.1.2,Win32,60,,,,,,,,,
,,0.102222222,-0.206666667,1,0,0,1.80663,probe1,"[0.1,-0.2]",0,7,7,7,1,8,probe1,0.05,0.05,0.1,-0.2,#009e73,#f0e442,#FFFFFF,-0.1,0,#d55e00,#d55e00,#d55e00,-0.1,0.1,#4A4A4A,#4A4A4A,#4A4A4A,-0.2,0,#cc79a7,#cc79a7,#cc79a7,0.2,0,#e69f00,#e69f00,#e69f00,A2YTQDLACTLIBA,001,2020-12-11_17h32.19.317,change-localization,2020.1.2,Win32,60,,,,,,,,,
,,-0.192222222,0.105555556,1,0,0,2.581485,probe3,"[-0.2,0.1]",0,8,8,8,1,9,probe1,0.05,0.05,0.1,-0.2,#0072b2,#e69f00,#FFFFFF,-0.1,0.2,#f0e442,#f0e442,#f0e442,-0.2,0.1,#d55e00,#d55e00,#d55e00,0.2,0.2,#cc79a7,#cc79a7,#cc79a7,0.1,0.1,#56b4e9,#56b4e9,#56b4e9,A2YTQDLACTLIBA,001,2020-12-11_17h32.19.317,change-localization,2020.1.2,Win32,60,,,,,,,,,
,,0.11,-0.177777778,1,0,0,1.723135,probe4,"[0.1,-0.2]",0,9,9,9,1,10,probe1,0.05,0.05,-0.1,-0.1,#4A4A4A,#f0e442,#FFFFFF,0,0.2,#cc79a7,#cc79a7,#cc79a7,0.2,-0.2,#e69f00,#e69f00,#e69f00,0.1,-0.2,#009e73,#009e73,#009e73,0.1,0.1,#d55e00,#d55e00,#d55e00,A2YTQDLACTLIBA,001,2020-12-11_17h32.19.317,change-localization,2020.1.2,Win32,60,,,,,,,,,
,,-0.103333333,0.186666667,1,0,0,1.082105,probe2,"[-0.1,0.2]",,,,,,1,probe2,0.05,0.05,-0.2,0.2,#009e73,#009e73,,-0.1,0.2,#f0e442,#e69f00,,-0.1,0,#0072b2,#0072b2,,0,-0.2,#cc79a7,#cc79a7,,0,0.2,#d55e00,#d55e00,,A2YTQDLACTLIBA,001,2020-12-11_17h32.19.317,change-localization,2020.1.2,Win32,60,c,4.28557,0,0,0,0,1,,
,,-0.075555556,-0.081111111,1,0,0,1.912395,probe3,"[-0.1,-0.1]",,,,,,2,probe5,0.05,0.05,0,0.1,#009e73,#009e73,,0.2,0.1,#4A4A4A,#4A4A4A,,-0.1,-0.1,#cc79a7,#cc79a7,,0.1,0.1,#d55e00,#d55e00,,0,-0.1,#56b4e9,#e69f00,,A2YTQDLACTLIBA,001,2020-12-11_17h32.19.317,change-localization,2020.1.2,Win32,60,,,0,1,1,1,1,,
,,-0.076666667,0.107777778,1,0,0,2.25227,probe4,"[-0.1,0.1]",,,,,,3,probe4,0.05,0.05,0.1,-0.1,#56b4e9,#56b4e9,,0.2,0,#f0e442,#f0e442,,0.2,-0.1,#e69f00,#e69f00,,-0.1,0.1,#4A4A4A,#009e73,,-0.1,0.2,#d55e00,#d55e00,,A2YTQDLACTLIBA,001,2020-12-11_17h32.19.317,change-localization,2020.1.2,Win32,60,,,0,2,2,2,1,,
,,-0.223333333,-0.001111111,1,0,0,1.086195,probe5,"[-0.2,0]",,,,,,4,probe5,0.05,0.05,0.2,0,#56b4e9,#56b4e9,,-0.2,-0.2,#cc79a7,#cc79a7,,0,0.2,#4A4A4A,#4A4A4A,,0.2,-0.2,#e69f00,#e69f00,,-0.2,0,#f0e442,#009e73,,A2YTQDLACTLIBA,001,2020-12-11_17h32.19.317,change-localization,2020.1.2,Win32,60,,,0,3,3,3,1,,
,,-0.202222222,0.101111111,1,0,0,2.474155,probe1,"[-0.2,0.1]",,,,,,5,probe3,0.05,0.05,-0.2,0.1,#4A4A4A,#4A4A4A,,0.2,0.2,#009e73,#009e73,,-0.1,-0.1,#0072b2,#f0e442,,0.2,0,#cc79a7,#cc79a7,,0.1,0.1,#e69f00,#e69f00,,A2YTQDLACTLIBA,001,2020-12-11_17h32.19.317,change-localization,2020.1.2,Win32,60,,,0,4,4,4,1,,
,,-0.015555556,0.172222222,1,0,0,1.72416,probe4,"[0,0.2]",,,,,,6,probe4,0.05,0.05,-0.1,0.1,#d55e00,#d55e00,,-0.2,0.2,#0072b2,#0072b2,,0,-0.1,#e69f00,#e69f00,,0,0.2,#56b4e9,#4A4A4A,,-0.2,-0.2,#009e73,#009e73,,A2YTQDLACTLIBA,001,2020-12-11_17h32.19.317,change-localization,2020.1.2,Win32,60,,,0,5,5,5,1,,
,,0.223333333,-0.1,1,0,0,2.38772,probe1,"[0.2,-0.1]",,,,,,7,probe4,0.05,0.05,0.2,-0.1,#56b4e9,#56b4e9,,-0.1,-0.1,#e69f00,#e69f00,,-0.2,0.2,#009e73,#009e73,,0.2,0.2,#cc79a7,#4A4A4A,,0.2,-0.2,#d55e00,#d55e00,,A2YTQDLACTLIBA,001,2020-12-11_17h32.19.317,change-localization,2020.1.2,Win32,60,,,0,6,6,6,1,,
,,-0.19,0.195555556,1,0,0,2.592065,probe4,"[-0.2,0.2]",,,,,,8,probe4,0.05,0.05,-0.2,0.1,#e69f00,#e69f00,,0.1,0.2,#cc79a7,#cc79a7,,0.2,0.1,#4A4A4A,#4A4A4A,,-0.2,0.2,#56b4e9,#d55e00,,0.2,-0.1,#0072b2,#0072b2,,A2YTQDLACTLIBA,001,2020-12-11_17h32.19.317,change-localization,2020.1.2,Win32,60,,,0,7,7,7,1,,
,,-0.125555556,0.004444444,1,0,0,2.690085,probe1,"[-0.1,0]",,,,,,9,probe5,0.05,0.05,-0.1,0,#4A4A4A,#4A4A4A,,0.1,0.1,#56b4e9,#56b4e9,,-0.2,0.1,#009e73,#009e73,,0.2,0.1,#cc79a7,#cc79a7,,0.2,0.2,#d55e00,#f0e442,,A2YTQDLACTLIBA,001,2020-12-11_17h32.19.317,change-localization,2020.1.2,Win32,60,,,0,8,8,8,1,,
,,-0.022222222,0.098888889,1,0,0,1.50757,probe3,"[0,0.1]",,,,,,10,probe3,0.05,0.05,0.2,0.2,#f0e442,#f0e442,,0.1,-0.1,#e69f00,#e69f00,,0,0.1,#cc79a7,#4A4A4A,,-0.2,0.1,#56b4e9,#56b4e9,,0.2,0,#0072b2,#0072b2,,A2YTQDLACTLIBA,001,2020-12-11_17h32.19.317,change-localization,2020.1.2,Win32,60,,,0,9,9,9,1,,
,,0.004444444,-0.2,1,0,0,1.90253,probe4,"[0,-0.2]",,,,,,11,probe5,0.05,0.05,0.2,0.2,#4A4A4A,#4A4A4A,,0.1,0.2,#0072b2,#0072b2,,0.1,-0.1,#cc79a7,#cc79a7,,0,-0.2,#009e73,#009e73,,0.1,-0.2,#f0e442,#d55e00,,A2YTQDLACTLIBA,001,2020-12-11_17h32.19.317,change-localization,2020.1.2,Win32,60,,,0,10,10,10,1,,
,,-0.008888889,-0.096666667,1,0,0,1.559065,probe5,"[0,-0.1]",,,,,,12,probe4,0.05,0.05,-0.1,-0.1,#009e73,#009e73,,-0.1,0,#56b4e9,#56b4e9,,-0.1,-0.2,#0072b2,#0072b2,,0.1,0,#d55e00,#f0e442,,0,-0.1,#cc79a7,#cc79a7,,A2YTQDLACTLIBA,001,2020-12-11_17h32.19.317,change-localization,2020.1.2,Win32,60,,,0,11,11,11,1,,
,,-0.202222222,0.185555556,1,0,0,1.741425,probe4,"[-0.2,0.2]",,,,,,13,probe4,0.05,0.05,0,-0.1,#f0e442,#f0e442,,0.1,-0.1,#d55e00,#d55e00,,0.1,0.1,#0072b2,#0072b2,,-0.2,0.2,#cc79a7,#4A4A4A,,0.1,0.2,#009e73,#009e73,,A2YTQDLACTLIBA,001,2020-12-11_17h32.19.317,change-localization,2020.1.2,Win32,60,,,0,12,12,12,1,,
,,0.091111111,0.106666667,1,0,0,2.131765,probe4,"[0.1,0.1]",,,,,,14,probe5,0.05,0.05,0,0.2,#cc79a7,#cc79a7,,0,-0.1,#4A4A4A,#4A4A4A,,-0.2,0,#56b4e9,#56b4e9,,0.1,0.1,#0072b2,#0072b2,,0.1,0.2,#009e73,#e69f00,,A2YTQDLACTLIBA,001,2020-12-11_17h32.19.317,change-localization,2020.1.2,Win32,60,,,0,13,13,13,1,,
,,0.191111111,0.113333333,1,0,0,2.0625,probe3,"[0.2,0.1]",,,,,,15,probe3,0.05,0.05,0.2,0.2,#cc79a7,#cc79a7,,0,0.2,#56b4e9,#56b4e9,,0.2,0.1,#d55e00,#4A4A4A,,0.1,-0.1,#f0e442,#f0e442,,0.2,-0.1,#0072b2,#0072b2,,A2YTQDLACTLIBA,001,2020-12-11_17h32.19.317,change-localization,2020.1.2,Win32,60,,,0,14,14,14,1,,
,,-0.027777778,-0.085555556,1,0,0,3.0294,probe5,"[0,-0.1]",,,,,,16,probe3,0.05,0.05,-0.2,-0.1,#f0e442,#f0e442,,-0.2,0.2,#d55e00,#d55e00,,0.1,0.1,#009e73,#4A4A4A,,-0.2,0.1,#56b4e9,#56b4e9,,0,-0.1,#cc79a7,#cc79a7,,A2YTQDLACTLIBA,001,2020-12-11_17h32.19.317,change-localization,2020.1.2,Win32,60,,,0,15,15,15,1,,
,,0.01,0.092222222,1,0,0,1.597625,probe3,"[0,0.1]",,,,,,17,probe3,0.05,0.05,0.2,-0.1,#cc79a7,#cc79a7,,0,-0.2,#0072b2,#0072b2,,0,0.1,#4A4A4A,#e69f00,,-0.2,-0.1,#f0e442,#f0e442,,-0.1,-0.1,#009e73,#009e73,,A2YTQDLACTLIBA,001,2020-12-11_17h32.19.317,change-localization,2020.1.2,Win32,60,,,0,16,16,16,1,,
,,0.101111111,-0.101111111,1,0,0,1.56728,probe4,"[0.1,-0.1]",,,,,,18,probe3,0.05,0.05,-0.1,0.1,#d55e00,#d55e00,,-0.1,0.2,#e69f00,#e69f00,,0.2,0,#009e73,#0072b2,,0.1,-0.1,#cc79a7,#cc79a7,,-0.2,0.2,#4A4A4A,#4A4A4A,,A2YTQDLACTLIBA,001,2020-12-11_17h32.19.317,change-localization,2020.1.2,Win32,60,,,0,17,17,17,1,,
,,0.187777778,0.104444444,1,0,0,2.084385,probe4,"[0.2,0.1]",,,,,,19,probe3,0.05,0.05,-0.1,0.2,#0072b2,#0072b2,,0,-0.1,#4A4A4A,#4A4A4A,,-0.1,0.1,#e69f00,#009e73,,0.2,0.1,#d55e00,#d55e00,,-0.2,0.1,#cc79a7,#cc79a7,,A2YTQDLACTLIBA,001,2020-12-11_17h32.19.317,change-localization,2020.1.2,Win32,60,,,0,18,18,18,1,,
,,-0.111111111,0.203333333,1,0,0,1.493045,probe2,"[-0.1,0.2]",,,,,,20,probe4,0.05,0.05,0.2,0,#56b4e9,#56b4e9,,-0.1,0.2,#009e73,#009e73,,-0.2,-0.2,#e69f00,#e69f00,,0,-0.1,#f0e442,#cc79a7,,-0.1,0,#4A4A4A,#4A4A4A,,A2YTQDLACTLIBA,001,2020-12-11_17h32.19.317,change-localization,2020.1.2,Win32,60,,,0,19,19,19,1,,
,,0.185555556,0.002222222,1,0,0,1.57208,probe3,"[0.2,0]",,,,,,21,probe3,0.05,0.05,-0.1,0.1,#0072b2,#0072b2,,-0.1,0.2,#009e73,#009e73,,0.2,0,#56b4e9,#4A4A4A,,-0.2,0.2,#f0e442,#f0e442,,0.2,0.1,#d55e00,#d55e00,,A2YTQDLACTLIBA,001,2020-12-11_17h32.19.317,change-localization,2020.1.2,Win32,60,,,0,20,20,20,1,,
,,-0.201111111,-0.09,1,0,0,2.74471,probe4,"[-0.2,-0.1]",,,,,,22,probe4,0.05,0.05,0.2,-0.1,#d55e00,#d55e00,,0.2,0,#56b4e9,#56b4e9,,0.1,-0.2,#cc79a7,#cc79a7,,-0.2,-0.1,#4A4A4A,#009e73,,0,-0.2,#e69f00,#e69f00,,A2YTQDLACTLIBA,001,2020-12-11_17h32.19.317,change-localization,2020.1.2,Win32,60,,,0,21,21,21,1,,
,,-0.186666667,-0.22,1,0,0,2.880785,probe4,"[-0.2,-0.2]",,,,,,23,probe4,0.05,0.05,0.1,0.1,#56b4e9,#56b4e9,,-0.2,-0.1,#0072b2,#0072b2,,0.2,0,#d55e00,#d55e00,,-0.2,-0.2,#cc79a7,#009e73,,0.1,-0.2,#4A4A4A,#4A4A4A,,A2YTQDLACTLIBA,001,2020-12-11_17h32.19.317,change-localization,2020.1.2,Win32,60,,,0,22,22,22,1,,
,,0.09,0.087777778,1,0,0,2.95422,probe4,"[0.1,0.1]",,,,,,24,probe2,0.05,0.05,-0.1,-0.2,#4A4A4A,#4A4A4A,,0.2,0.2,#d55e00,#e69f00,,0.1,-0.1,#f0e442,#f0e442,,0.1,0.1,#56b4e9,#56b4e9,,-0.2,0.1,#cc79a7,#cc79a7,,A2YTQDLACTLIBA,001,2020-12-11_17h32.19.317,change-localization,2020.1.2,Win32,60,,,0,23,23,23,1,,
,,0.185555556,-0.017777778,1,0,0,1.56374,probe3,"[0.2,0]",,,,,,25,probe3,0.05,0.05,-0.2,-0.2,#f0e442,#f0e442,,-0.1,-0.1,#4A4A4A,#4A4A4A,,0.2,0,#d55e00,#cc79a7,,0,0.2,#0072b2,#0072b2,,-0.2,0.1,#009e73,#009e73,,A2YTQDLACTLIBA,001,2020-12-11_17h32.19.317,change-localization,2020.1.2,Win32,60,,,0,24,24,24,1,,
,,-0.118888889,-0.187777778,1,0,0,1.82647,probe3,"[-0.1,-0.2]",,,,,,26,probe3,0.05,0.05,0.1,-0.1,#e69f00,#e69f00,,-0.2,0,#56b4e9,#56b4e9,,-0.1,-0.2,#009e73,#d55e00,,-0.2,-0.1,#4A4A4A,#4A4A4A,,0.1,0,#cc79a7,#cc79a7,,A2YTQDLACTLIBA,001,2020-12-11_17h32.19.317,change-localization,2020.1.2,Win32,60,,,0,25,25,25,1,,
,,-0.207777778,-0.108888889,1,0,0,3.258135,probe5,"[-0.2,-0.1]",,,,,,27,probe5,0.05,0.05,-0.1,-0.2,#009e73,#009e73,,0.2,0,#cc79a7,#cc79a7,,-0.1,-0.1,#e69f00,#e69f00,,0.1,0.1,#d55e00,#d55e00,,-0.2,-0.1,#4A4A4A,#0072b2,,A2YTQDLACTLIBA,001,2020-12-11_17h32.19.317,change-localization,2020.1.2,Win32,60,,,0,26,26,26,1,,
,,-0.002222222,-0.201111111,1,0,0,1.40016,probe3,"[0,-0.2]",,,,,,28,probe5,0.05,0.05,-0.1,0.2,#009e73,#009e73,,-0.2,0.1,#56b4e9,#56b4e9,,0,-0.2,#d55e00,#d55e00,,0.1,0,#0072b2,#0072b2,,0.1,0.1,#f0e442,#e69f00,,A2YTQDLACTLIBA,001,2020-12-11_17h32.19.317,change-localization,2020.1.2,Win32,60,,,0,27,27,27,1,,
,,-0.1,-0.198888889,1,0,0,1.376275,probe5,"[-0.1,-0.2]",,,,,,29,probe1,0.05,0.05,0.1,-0.1,#4A4A4A,#56b4e9,,-0.2,0.2,#e69f00,#e69f00,,-0.1,-0.1,#f0e442,#f0e442,,0.1,0.2,#0072b2,#0072b2,,-0.1,-0.2,#cc79a7,#cc79a7,,A2YTQDLACTLIBA,001,2020-12-11_17h32.19.317,change-localization,2020.1.2,Win32,60,,,0,28,28,28,1,,
,,-0.201111111,0.001111111,1,0,0,1.055455,probe5,"[-0.2,0]",,,,,,30,probe2,0.05,0.05,0.1,0.2,#f0e442,#f0e442,,-0.1,-0.2,#d55e00,#4A4A4A,,0,-0.2,#cc79a7,#cc79a7,,0.1,-0.2,#0072b2,#0072b2,,-0.2,0,#009e73,#009e73,,A2YTQDLACTLIBA,001,2020-12-11_17h32.19.317,change-localization,2020.1.2,Win32,60,,,0,29,29,29,1,,
,,-0.12,-0.085555556,1,0,0,1.20431,probe5,"[-0.1,-0.1]",,,,,,31,probe5,0.05,0.05,0,-0.2,#d55e00,#d55e00,,0.1,0,#e69f00,#e69f00,,0.1,0.2,#f0e442,#f0e442,,-0.2,-0.1,#cc79a7,#cc79a7,,-0.1,-0.1,#009e73,#4A4A4A,,A2YTQDLACTLIBA,001,2020-12-11_17h32.19.317,change-localization,2020.1.2,Win32,60,,,0,30,30,30,1,,
,,0.177777778,0.208888889,1,0,0,2.984605,probe1,"[0.2,0.2]",,,,,,32,probe3,0.05,0.05,0.2,0.2,#56b4e9,#56b4e9,,-0.1,-0.1,#009e73,#009e73,,0.2,0.1,#cc79a7,#0072b2,,-0.2,0.1,#4A4A4A,#4A4A4A,,-0.2,-0.1,#f0e442,#f0e442,,A2YTQDLACTLIBA,001,2020-12-11_17h32.19.317,change-localization,2020.1.2,Win32,60,,,0,31,31,31,1,,
,,-0.104444444,0.09,1,0,0,2.342075,probe3,"[-0.1,0.1]",,,,,,33,probe3,0.05,0.05,-0.1,-0.1,#0072b2,#0072b2,,0.1,0.1,#cc79a7,#cc79a7,,-0.1,0.1,#f0e442,#009e73,,0,-0.2,#56b4e9,#56b4e9,,0.1,0.2,#e69f00,#e69f00,,A2YTQDLACTLIBA,001,2020-12-11_17h32.19.317,change-localization,2020.1.2,Win32,60,,,0,32,32,32,1,,
,,-0.194444444,0.107777778,1,0,0,1.38529,probe2,"[-0.2,0.1]",,,,,,34,probe5,0.05,0.05,0.2,0.1,#e69f00,#e69f00,,-0.2,0.1,#cc79a7,#cc79a7,,0.1,-0.2,#0072b2,#0072b2,,0.2,-0.2,#d55e00,#d55e00,,-0.2,0,#56b4e9,#009e73,,A2YTQDLACTLIBA,001,2020-12-11_17h32.19.317,change-localization,2020.1.2,Win32,60,,,0,33,33,33,1,,
,,0.188888889,-0.091111111,1,0,0,2.62773,probe2,"[0.2,-0.1]",,,,,,35,probe2,0.05,0.05,0.2,0,#56b4e9,#56b4e9,,0.2,-0.1,#e69f00,#009e73,,0.1,-0.1,#f0e442,#f0e442,,0,0.2,#d55e00,#d55e00,,0.1,0.2,#cc79a7,#cc79a7,,A2YTQDLACTLIBA,001,2020-12-11_17h32.19.317,change-localization,2020.1.2,Win32,60,,,0,34,34,34,1,,
,,0.003333333,0.102222222,1,0,0,3.856835,probe1,"[0,0.1]",,,,,,36,probe3,0.05,0.05,0,0.1,#4A4A4A,#4A4A4A,,0.2,0.1,#009e73,#009e73,,-0.2,-0.1,#f0e442,#56b4e9,,-0.1,-0.1,#e69f00,#e69f00,,0.1,0,#0072b2,#0072b2,,A2YTQDLACTLIBA,001,2020-12-11_17h32.19.317,change-localization,2020.1.2,Win32,60,,,0,35,35,35,1,,
,,0.07,-0.013333333,1,0,0,3.24042,probe5,"[0.1,0]",,,,,,37,probe5,0.05,0.05,-0.2,0.1,#e69f00,#e69f00,,0.1,0.1,#0072b2,#0072b2,,-0.2,0,#d55e00,#d55e00,,-0.1,0.2,#cc79a7,#cc79a7,,0.1,0,#009e73,#f0e442,,A2YTQDLACTLIBA,001,2020-12-11_17h32.19.317,change-localization,2020.1.2,Win32,60,,,0,36,36,36,1,,
,,0.203333333,0.013333333,1,0,0,1.83504,probe2,"[0.2,0]",,,,,,38,probe4,0.05,0.05,0.2,-0.2,#4A4A4A,#4A4A4A,,0.2,0,#0072b2,#0072b2,,0.1,-0.1,#e69f00,#e69f00,,0.1,0,#d55e00,#cc79a7,,0,-0.1,#009e73,#009e73,,A2YTQDLACTLIBA,001,2020-12-11_17h32.19.317,change-localization,2020.1.2,Win32,60,,,0,37,37,37,1,,
,,-0.175555556,0.178888889,1,0,0,1.388625,probe4,"[-0.2,0.2]",,,,,,39,probe4,0.05,0.05,0.1,-0.1,#e69f00,#e69f00,,-0.2,-0.1,#cc79a7,#cc79a7,,0.2,0.1,#d55e00,#d55e00,,-0.2,0.2,#56b4e9,#f0e442,,0,-0.1,#0072b2,#0072b2,,A2YTQDLACTLIBA,001,2020-12-11_17h32.19.317,change-localization,2020.1.2,Win32,60,,,0,38,38,38,1,,
,,-0.193333333,0.115555556,1,0,0,1.65614,probe1,"[-0.2,0.1]",,,,,,40,probe1,0.05,0.05,-0.2,0.1,#4A4A4A,#d55e00,,0.2,0.2,#009e73,#009e73,,-0.1,-0.1,#cc79a7,#cc79a7,,0.2,-0.2,#e69f00,#e69f00,,0.1,-0.1,#56b4e9,#56b4e9,,A2YTQDLACTLIBA,001,2020-12-11_17h32.19.317,change-localization,2020.1.2,Win32,60,,,0,39,39,39,1,,
,,-0.095555556,0.015555556,1,0,0,1.324785,probe4,"[-0.1,0]",,,,,,41,probe4,0.05,0.05,0.2,0.1,#009e73,#009e73,,-0.2,-0.1,#0072b2,#0072b2,,-0.2,-0.2,#56b4e9,#56b4e9,,-0.1,0,#f0e442,#cc79a7,,0,-0.2,#d55e00,#d55e00,,A2YTQDLACTLIBA,001,2020-12-11_17h32.19.317,change-localization,2020.1.2,Win32,60,,,0,40,40,40,1,,
,,0.096666667,0.085555556,1,0,0,2.63431,probe3,"[0.1,0.1]",,,,,,42,probe4,0.05,0.05,-0.1,-0.2,#009e73,#009e73,,-0.1,0.1,#cc79a7,#cc79a7,,0.1,0.1,#56b4e9,#56b4e9,,0,-0.2,#e69f00,#d55e00,,-0.1,0,#0072b2,#0072b2,,A2YTQDLACTLIBA,001,2020-12-11_17h32.19.317,change-localization,2020.1.2,Win32,60,,,0,41,41,41,1,,
,,0.085555556,-0.001111111,1,0,0,1.608835,probe2,"[0.1,0]",,,,,,43,probe1,0.05,0.05,0.2,-0.1,#e69f00,#009e73,,0.1,0,#cc79a7,#cc79a7,,-0.2,-0.2,#f0e442,#f0e442,,0.2,-0.2,#56b4e9,#56b4e9,,-0.2,0.1,#4A4A4A,#4A4A4A,,A2YTQDLACTLIBA,001,2020-12-11_17h32.19.317,change-localization,2020.1.2,Win32,60,,,0,42,42,42,1,,
,,-0.092222222,-0.086666667,1,0,0,1.869565,probe5,"[-0.1,-0.1]",,,,,,44,probe1,0.05,0.05,-0.1,0.2,#56b4e9,#e69f00,,0.2,0.1,#4A4A4A,#4A4A4A,,0.1,0,#cc79a7,#cc79a7,,0.1,0.2,#f0e442,#f0e442,,-0.1,-0.1,#d55e00,#d55e00,,A2YTQDLACTLIBA,001,2020-12-11_17h32.19.317,change-localization,2020.1.2,Win32,60,,,0,43,43,43,1,,
,,-0.092222222,0.122222222,1,0,0,0.996725,probe3,"[-0.1,0.1]",,,,,,45,probe3,0.05,0.05,-0.2,0.2,#0072b2,#0072b2,,-0.2,-0.1,#56b4e9,#56b4e9,,-0.1,0.1,#f0e442,#e69f00,,-0.1,0.2,#d55e00,#d55e00,,0,-0.2,#cc79a7,#cc79a7,,A2YTQDLACTLIBA,001,2020-12-11_17h32.19.317,change-localization,2020.1.2,Win32,60,,,0,44,44,44,1,,
,,0.194444444,-0.183333333,1,0,0,1.923465,probe3,"[0.2,-0.2]",,,,,,46,probe5,0.05,0.05,0.2,0.1,#0072b2,#0072b2,,0.1,0.2,#f0e442,#f0e442,,0.2,-0.2,#009e73,#009e73,,0.2,0.2,#4A4A4A,#4A4A4A,,0.2,0,#cc79a7,#e69f00,,A2YTQDLACTLIBA,001,2020-12-11_17h32.19.317,change-localization,2020.1.2,Win32,60,,,0,45,45,45,1,,
,,0.208888889,0.223333333,1,0,0,1.025595,probe3,"[0.2,0.2]",,,,,,47,probe3,0.05,0.05,0,-0.1,#009e73,#009e73,,-0.2,0.2,#f0e442,#f0e442,,0.2,0.2,#56b4e9,#cc79a7,,-0.1,0.2,#4A4A4A,#4A4A4A,,-0.1,0.1,#e69f00,#e69f00,,A2YTQDLACTLIBA,001,2020-12-11_17h32.19.317,change-localization,2020.1.2,Win32,60,,,0,46,46,46,1,,
,,-0.096666667,0.09,1,0,0,1.830475,probe2,"[-0.1,0.1]",,,,,,48,probe4,0.05,0.05,0.2,-0.2,#cc79a7,#cc79a7,,-0.1,0.1,#009e73,#009e73,,0.1,-0.2,#f0e442,#f0e442,,-0.2,-0.1,#d55e00,#0072b2,,-0.1,0,#56b4e9,#56b4e9,,A2YTQDLACTLIBA,001,2020-12-11_17h32.19.317,change-localization,2020.1.2,Win32,60,,,0,47,47,47,1,,
,,0.1,0.186666667,1,0,0,1.689325,probe4,"[0.1,0.2]",,,,,,49,probe2,0.05,0.05,0,-0.2,#e69f00,#e69f00,,-0.2,0,#cc79a7,#0072b2,,-0.1,0.2,#f0e442,#f0e442,,0.1,0.2,#4A4A4A,#4A4A4A,,-0.1,-0.1,#56b4e9,#56b4e9,,A2YTQDLACTLIBA,001,2020-12-11_17h32.19.317,change-localization,2020.1.2,Win32,60,,,0,48,48,48,1,,
,,0.093333333,0.091111111,1,0,0,2.54372,probe2,"[0.1,0.1]",,,,,,50,probe4,0.05,0.05,0.2,0.1,#0072b2,#0072b2,,0.1,0.1,#cc79a7,#cc79a7,,0.1,-0.2,#56b4e9,#56b4e9,,-0.1,0,#009e73,#e69f00,,0,0.1,#d55e00,#d55e00,,A2YTQDLACTLIBA,001,2020-12-11_17h32.19.317,change-localization,2020.1.2,Win32,60,,,0,49,49,49,1,,
,,,,,,,,,,,,,,,,,,,,,,,,,,,,,,,,,,,,,,,,,,,,A2YTQDLACTLIBA,001,2020-12-11_17h32.19.317,change-localization,2020.1.2,Win32,60,,,,,,,,c,5.767785
