key_resp.keys,key_resp.rt,mouse.x,mouse.y,mouse.leftButton,mouse.midButton,mouse.rightButton,mouse.time,mouse.clicked_name,mouse.clicked_pos,training.thisRepN,training.thisTrialN,training.thisN,training.thisIndex,training.ran,trial,answer,height,width,x1,y1,stim_color1,probe_color1,copy_color1,x2,y2,stim_color2,probe_color2,copy_color2,x3,y3,stim_color3,probe_color3,copy_color3,x4,y4,stim_color4,probe_color4,copy_color4,x5,y5,stim_color5,probe_color5,copy_color5,participant,session,date,expName,psychopyVersion,OS,frameRate,key_resp_2.keys,key_resp_2.rt,trials.thisRepN,trials.thisTrialN,trials.thisN,trials.thisIndex,trials.ran,completion_keys.keys,completion_keys.rt
c,5.670535,0.1,0.199074074,1,0,0,4.683705,probe1,"[0.1,0.2]",0,0,0,0,1,1,probe4,0.05,0.05,0.1,0.2,#0072b2,#0072b2,#0072b2,0.1,-0.1,#e69f00,#e69f00,#e69f00,-0.1,-0.2,#cc79a7,#cc79a7,#cc79a7,0.2,-0.1,#4A4A4A,#f0e442,#FFFFFF,0.2,0,#009e73,#009e73,#009e73,A37XBH865833FE,001,2020-12-11_20h25.57.409,change-localization,2020.1.2,Win32,60,,,,,,,,,
,,-0.087037037,0.087962963,1,0,0,2.557015,probe4,"[-0.1,0.1]",0,1,1,1,1,2,probe1,0.05,0.05,0.2,0,#d55e00,#009e73,#FFFFFF,0.2,-0.1,#e69f00,#e69f00,#e69f00,0.1,0,#4A4A4A,#4A4A4A,#4A4A4A,-0.1,0.1,#56b4e9,#56b4e9,#56b4e9,-0.1,0,#cc79a7,#cc79a7,#cc79a7,A37XBH865833FE,001,2020-12-11_20h25.57.409,change-localization,2020.1.2,Win32,60,,,,,,,,,
,,0.008333333,-0.12037037,1,0,0,1.382865,probe5,"[0,-0.1]",0,2,2,2,1,3,probe1,0.05,0.05,-0.2,-0.2,#f0e442,#009e73,#FFFFFF,0.2,-0.1,#d55e00,#d55e00,#d55e00,-0.2,0,#4A4A4A,#4A4A4A,#4A4A4A,-0.1,-0.1,#0072b2,#0072b2,#0072b2,0,-0.1,#56b4e9,#56b4e9,#56b4e9,A37XBH865833FE,001,2020-12-11_20h25.57.409,change-localization,2020.1.2,Win32,60,,,,,,,,,
,,-0.193518519,0.097222222,1,0,0,1.307725,probe5,"[-0.2,0.1]",0,3,3,3,1,4,probe1,0.05,0.05,0.2,0.2,#d55e00,#56b4e9,#FFFFFF,-0.2,0.2,#f0e442,#f0e442,#f0e442,0.2,-0.2,#0072b2,#0072b2,#0072b2,-0.2,0,#cc79a7,#cc79a7,#cc79a7,-0.2,0.1,#4A4A4A,#4A4A4A,#4A4A4A,A37XBH865833FE,001,2020-12-11_20h25.57.409,change-localization,2020.1.2,Win32,60,,,,,,,,,
,,0.009259259,0.089814815,1,0,0,0.97285,probe3,"[0,0.1]",0,4,4,4,1,5,probe3,0.05,0.05,-0.2,0.1,#56b4e9,#56b4e9,#56b4e9,0,0.2,#009e73,#009e73,#009e73,0,0.1,#0072b2,#cc79a7,#FFFFFF,-0.1,-0.1,#4A4A4A,#4A4A4A,#4A4A4A,0.2,0,#f0e442,#f0e442,#f0e442,A37XBH865833FE,001,2020-12-11_20h25.57.409,change-localization,2020.1.2,Win32,60,,,,,,,,,
,,-0.009259259,-0.205555556,1,0,0,1.22988,probe4,"[0,-0.2]",0,5,5,5,1,6,probe5,0.05,0.05,-0.1,0.1,#f0e442,#f0e442,#f0e442,0,0.1,#009e73,#009e73,#009e73,-0.2,0,#4A4A4A,#4A4A4A,#4A4A4A,0,-0.2,#d55e00,#d55e00,#d55e00,0.1,0,#cc79a7,#0072b2,#FFFFFF,A37XBH865833FE,001,2020-12-11_20h25.57.409,change-localization,2020.1.2,Win32,60,,,,,,,,,
,,0.103703704,0.209259259,1,0,0,1.06315,probe2,"[0.1,0.2]",0,6,6,6,1,7,probe2,0.05,0.05,-0.2,-0.2,#4A4A4A,#4A4A4A,#4A4A4A,0.1,0.2,#0072b2,#d55e00,#FFFFFF,-0.1,-0.2,#f0e442,#f0e442,#f0e442,-0.2,0.2,#009e73,#009e73,#009e73,0.2,0.2,#e69f00,#e69f00,#e69f00,A37XBH865833FE,001,2020-12-11_20h25.57.409,change-localization,2020.1.2,Win32,60,,,,,,,,,
,,0.209259259,0.000925926,1,0,0,1.014475,probe5,"[0.2,0]",0,7,7,7,1,8,probe1,0.05,0.05,0.1,-0.2,#009e73,#f0e442,#FFFFFF,-0.1,0,#d55e00,#d55e00,#d55e00,-0.1,0.1,#4A4A4A,#4A4A4A,#4A4A4A,-0.2,0,#cc79a7,#cc79a7,#cc79a7,0.2,0,#e69f00,#e69f00,#e69f00,A37XBH865833FE,001,2020-12-11_20h25.57.409,change-localization,2020.1.2,Win32,60,,,,,,,,,
,,0.213888889,0.210185185,1,0,0,1.028385,probe4,"[0.2,0.2]",0,8,8,8,1,9,probe1,0.05,0.05,0.1,-0.2,#0072b2,#e69f00,#FFFFFF,-0.1,0.2,#f0e442,#f0e442,#f0e442,-0.2,0.1,#d55e00,#d55e00,#d55e00,0.2,0.2,#cc79a7,#cc79a7,#cc79a7,0.1,0.1,#56b4e9,#56b4e9,#56b4e9,A37XBH865833FE,001,2020-12-11_20h25.57.409,change-localization,2020.1.2,Win32,60,,,,,,,,,
,,0.006481481,0.212037037,1,0,0,2.244955,probe2,"[0,0.2]",0,9,9,9,1,10,probe1,0.05,0.05,-0.1,-0.1,#4A4A4A,#f0e442,#FFFFFF,0,0.2,#cc79a7,#cc79a7,#cc79a7,0.2,-0.2,#e69f00,#e69f00,#e69f00,0.1,-0.2,#009e73,#009e73,#009e73,0.1,0.1,#d55e00,#d55e00,#d55e00,A37XBH865833FE,001,2020-12-11_20h25.57.409,change-localization,2020.1.2,Win32,60,,,,,,,,,
,,-0.09537037,-0.006481481,1,0,0,1.29943,probe3,"[-0.1,0]",,,,,,1,probe2,0.05,0.05,-0.2,0.2,#009e73,#009e73,,-0.1,0.2,#f0e442,#e69f00,,-0.1,0,#0072b2,#0072b2,,0,-0.2,#cc79a7,#cc79a7,,0,0.2,#d55e00,#d55e00,,A37XBH865833FE,001,2020-12-11_20h25.57.409,change-localization,2020.1.2,Win32,60,c,4.335895,0,0,0,0,1,,
,,-0.006481481,-0.103703704,1,0,0,0.84082,probe5,"[0,-0.1]",,,,,,2,probe5,0.05,0.05,0,0.1,#009e73,#009e73,,0.2,0.1,#4A4A4A,#4A4A4A,,-0.1,-0.1,#cc79a7,#cc79a7,,0.1,0.1,#d55e00,#d55e00,,0,-0.1,#56b4e9,#e69f00,,A37XBH865833FE,001,2020-12-11_20h25.57.409,change-localization,2020.1.2,Win32,60,,,0,1,1,1,1,,
,,-0.094444444,0.103703704,1,0,0,1.056275,probe4,"[-0.1,0.1]",,,,,,3,probe4,0.05,0.05,0.1,-0.1,#56b4e9,#56b4e9,,0.2,0,#f0e442,#f0e442,,0.2,-0.1,#e69f00,#e69f00,,-0.1,0.1,#4A4A4A,#009e73,,-0.1,0.2,#d55e00,#d55e00,,A37XBH865833FE,001,2020-12-11_20h25.57.409,change-localization,2020.1.2,Win32,60,,,0,2,2,2,1,,
,,-0.207407407,-0.188888889,1,0,0,1.014595,probe2,"[-0.2,-0.2]",,,,,,4,probe5,0.05,0.05,0.2,0,#56b4e9,#56b4e9,,-0.2,-0.2,#cc79a7,#cc79a7,,0,0.2,#4A4A4A,#4A4A4A,,0.2,-0.2,#e69f00,#e69f00,,-0.2,0,#f0e442,#009e73,,A37XBH865833FE,001,2020-12-11_20h25.57.409,change-localization,2020.1.2,Win32,60,,,0,3,3,3,1,,
,,-0.084259259,-0.098148148,1,0,0,0.778265,probe3,"[-0.1,-0.1]",,,,,,5,probe3,0.05,0.05,-0.2,0.1,#4A4A4A,#4A4A4A,,0.2,0.2,#009e73,#009e73,,-0.1,-0.1,#0072b2,#f0e442,,0.2,0,#cc79a7,#cc79a7,,0.1,0.1,#e69f00,#e69f00,,A37XBH865833FE,001,2020-12-11_20h25.57.409,change-localization,2020.1.2,Win32,60,,,0,4,4,4,1,,
,,0.00462963,0.196296296,1,0,0,1.000795,probe4,"[0,0.2]",,,,,,6,probe4,0.05,0.05,-0.1,0.1,#d55e00,#d55e00,,-0.2,0.2,#0072b2,#0072b2,,0,-0.1,#e69f00,#e69f00,,0,0.2,#56b4e9,#4A4A4A,,-0.2,-0.2,#009e73,#009e73,,A37XBH865833FE,001,2020-12-11_20h25.57.409,change-localization,2020.1.2,Win32,60,,,0,5,5,5,1,,
,,-0.098148148,-0.097222222,1,0,0,0.92418,probe2,"[-0.1,-0.1]",,,,,,7,probe4,0.05,0.05,0.2,-0.1,#56b4e9,#56b4e9,,-0.1,-0.1,#e69f00,#e69f00,,-0.2,0.2,#009e73,#009e73,,0.2,0.2,#cc79a7,#4A4A4A,,0.2,-0.2,#d55e00,#d55e00,,A37XBH865833FE,001,2020-12-11_20h25.57.409,change-localization,2020.1.2,Win32,60,,,0,6,6,6,1,,
,,0.1,0.199074074,1,0,0,0.91739,probe2,"[0.1,0.2]",,,,,,8,probe4,0.05,0.05,-0.2,0.1,#e69f00,#e69f00,,0.1,0.2,#cc79a7,#cc79a7,,0.2,0.1,#4A4A4A,#4A4A4A,,-0.2,0.2,#56b4e9,#d55e00,,0.2,-0.1,#0072b2,#0072b2,,A37XBH865833FE,001,2020-12-11_20h25.57.409,change-localization,2020.1.2,Win32,60,,,0,7,7,7,1,,
,,0.180555556,0.197222222,1,0,0,0.99379,probe5,"[0.2,0.2]",,,,,,9,probe5,0.05,0.05,-0.1,0,#4A4A4A,#4A4A4A,,0.1,0.1,#56b4e9,#56b4e9,,-0.2,0.1,#009e73,#009e73,,0.2,0.1,#cc79a7,#cc79a7,,0.2,0.2,#d55e00,#f0e442,,A37XBH865833FE,001,2020-12-11_20h25.57.409,change-localization,2020.1.2,Win32,60,,,0,8,8,8,1,,
,,0.000925926,0.109259259,1,0,0,1.014495,probe3,"[0,0.1]",,,,,,10,probe3,0.05,0.05,0.2,0.2,#f0e442,#f0e442,,0.1,-0.1,#e69f00,#e69f00,,0,0.1,#cc79a7,#4A4A4A,,-0.2,0.1,#56b4e9,#56b4e9,,0.2,0,#0072b2,#0072b2,,A37XBH865833FE,001,2020-12-11_20h25.57.409,change-localization,2020.1.2,Win32,60,,,0,9,9,9,1,,
,,0.094444444,-0.201851852,1,0,0,1.070005,probe5,"[0.1,-0.2]",,,,,,11,probe5,0.05,0.05,0.2,0.2,#4A4A4A,#4A4A4A,,0.1,0.2,#0072b2,#0072b2,,0.1,-0.1,#cc79a7,#cc79a7,,0,-0.2,#009e73,#009e73,,0.1,-0.2,#f0e442,#d55e00,,A37XBH865833FE,001,2020-12-11_20h25.57.409,change-localization,2020.1.2,Win32,60,,,0,10,10,10,1,,
,,-0.102777778,-0.2,1,0,0,1.0632,probe3,"[-0.1,-0.2]",,,,,,12,probe4,0.05,0.05,-0.1,-0.1,#009e73,#009e73,,-0.1,0,#56b4e9,#56b4e9,,-0.1,-0.2,#0072b2,#0072b2,,0.1,0,#d55e00,#f0e442,,0,-0.1,#cc79a7,#cc79a7,,A37XBH865833FE,001,2020-12-11_20h25.57.409,change-localization,2020.1.2,Win32,60,,,0,11,11,11,1,,
,,-0.210185185,0.206481481,1,0,0,0.95198,probe4,"[-0.2,0.2]",,,,,,13,probe4,0.05,0.05,0,-0.1,#f0e442,#f0e442,,0.1,-0.1,#d55e00,#d55e00,,0.1,0.1,#0072b2,#0072b2,,-0.2,0.2,#cc79a7,#4A4A4A,,0.1,0.2,#009e73,#009e73,,A37XBH865833FE,001,2020-12-11_20h25.57.409,change-localization,2020.1.2,Win32,60,,,0,12,12,12,1,,
,,-0.225925926,0.001851852,1,0,0,1.084615,probe3,"[-0.2,0]",,,,,,14,probe5,0.05,0.05,0,0.2,#cc79a7,#cc79a7,,0,-0.1,#4A4A4A,#4A4A4A,,-0.2,0,#56b4e9,#56b4e9,,0.1,0.1,#0072b2,#0072b2,,0.1,0.2,#009e73,#e69f00,,A37XBH865833FE,001,2020-12-11_20h25.57.409,change-localization,2020.1.2,Win32,60,,,0,13,13,13,1,,
,,0.194444444,0.096296296,1,0,0,0.993595,probe3,"[0.2,0.1]",,,,,,15,probe3,0.05,0.05,0.2,0.2,#cc79a7,#cc79a7,,0,0.2,#56b4e9,#56b4e9,,0.2,0.1,#d55e00,#4A4A4A,,0.1,-0.1,#f0e442,#f0e442,,0.2,-0.1,#0072b2,#0072b2,,A37XBH865833FE,001,2020-12-11_20h25.57.409,change-localization,2020.1.2,Win32,60,,,0,14,14,14,1,,
,,0.096296296,0.098148148,1,0,0,0.91723,probe3,"[0.1,0.1]",,,,,,16,probe3,0.05,0.05,-0.2,-0.1,#f0e442,#f0e442,,-0.2,0.2,#d55e00,#d55e00,,0.1,0.1,#009e73,#4A4A4A,,-0.2,0.1,#56b4e9,#56b4e9,,0,-0.1,#cc79a7,#cc79a7,,A37XBH865833FE,001,2020-12-11_20h25.57.409,change-localization,2020.1.2,Win32,60,,,0,15,15,15,1,,
,,-0.106481481,-0.112037037,1,0,0,1.591175,probe5,"[-0.1,-0.1]",,,,,,17,probe3,0.05,0.05,0.2,-0.1,#cc79a7,#cc79a7,,0,-0.2,#0072b2,#0072b2,,0,0.1,#4A4A4A,#e69f00,,-0.2,-0.1,#f0e442,#f0e442,,-0.1,-0.1,#009e73,#009e73,,A37XBH865833FE,001,2020-12-11_20h25.57.409,change-localization,2020.1.2,Win32,60,,,0,16,16,16,1,,
,,0.202777778,0.000925926,1,0,0,0.868555,probe3,"[0.2,0]",,,,,,18,probe3,0.05,0.05,-0.1,0.1,#d55e00,#d55e00,,-0.1,0.2,#e69f00,#e69f00,,0.2,0,#009e73,#0072b2,,0.1,-0.1,#cc79a7,#cc79a7,,-0.2,0.2,#4A4A4A,#4A4A4A,,A37XBH865833FE,001,2020-12-11_20h25.57.409,change-localization,2020.1.2,Win32,60,,,0,17,17,17,1,,
,,-0.09537037,0.101851852,1,0,0,0.889455,probe3,"[-0.1,0.1]",,,,,,19,probe3,0.05,0.05,-0.1,0.2,#0072b2,#0072b2,,0,-0.1,#4A4A4A,#4A4A4A,,-0.1,0.1,#e69f00,#009e73,,0.2,0.1,#d55e00,#d55e00,,-0.2,0.1,#cc79a7,#cc79a7,,A37XBH865833FE,001,2020-12-11_20h25.57.409,change-localization,2020.1.2,Win32,60,,,0,18,18,18,1,,
,,0.193518519,0.002777778,1,0,0,0.75739,probe1,"[0.2,0]",,,,,,20,probe4,0.05,0.05,0.2,0,#56b4e9,#56b4e9,,-0.1,0.2,#009e73,#009e73,,-0.2,-0.2,#e69f00,#e69f00,,0,-0.1,#f0e442,#cc79a7,,-0.1,0,#4A4A4A,#4A4A4A,,A37XBH865833FE,001,2020-12-11_20h25.57.409,change-localization,2020.1.2,Win32,60,,,0,19,19,19,1,,
,,0.2,-0.013888889,1,0,0,0.85481,probe3,"[0.2,0]",,,,,,21,probe3,0.05,0.05,-0.1,0.1,#0072b2,#0072b2,,-0.1,0.2,#009e73,#009e73,,0.2,0,#56b4e9,#4A4A4A,,-0.2,0.2,#f0e442,#f0e442,,0.2,0.1,#d55e00,#d55e00,,A37XBH865833FE,001,2020-12-11_20h25.57.409,change-localization,2020.1.2,Win32,60,,,0,20,20,20,1,,
,,-0.009259259,-0.197222222,1,0,0,1.195105,probe5,"[0,-0.2]",,,,,,22,probe4,0.05,0.05,0.2,-0.1,#d55e00,#d55e00,,0.2,0,#56b4e9,#56b4e9,,0.1,-0.2,#cc79a7,#cc79a7,,-0.2,-0.1,#4A4A4A,#009e73,,0,-0.2,#e69f00,#e69f00,,A37XBH865833FE,001,2020-12-11_20h25.57.409,change-localization,2020.1.2,Win32,60,,,0,21,21,21,1,,
,,-0.193518519,-0.107407407,1,0,0,2.015245,probe2,"[-0.2,-0.1]",,,,,,23,probe4,0.05,0.05,0.1,0.1,#56b4e9,#56b4e9,,-0.2,-0.1,#0072b2,#0072b2,,0.2,0,#d55e00,#d55e00,,-0.2,-0.2,#cc79a7,#009e73,,0.1,-0.2,#4A4A4A,#4A4A4A,,A37XBH865833FE,001,2020-12-11_20h25.57.409,change-localization,2020.1.2,Win32,60,,,0,22,22,22,1,,
,,0.093518519,0.096296296,1,0,0,0.95904,probe4,"[0.1,0.1]",,,,,,24,probe2,0.05,0.05,-0.1,-0.2,#4A4A4A,#4A4A4A,,0.2,0.2,#d55e00,#e69f00,,0.1,-0.1,#f0e442,#f0e442,,0.1,0.1,#56b4e9,#56b4e9,,-0.2,0.1,#cc79a7,#cc79a7,,A37XBH865833FE,001,2020-12-11_20h25.57.409,change-localization,2020.1.2,Win32,60,,,0,23,23,23,1,,
,,0.206481481,-0.008333333,1,0,0,0.958985,probe3,"[0.2,0]",,,,,,25,probe3,0.05,0.05,-0.2,-0.2,#f0e442,#f0e442,,-0.1,-0.1,#4A4A4A,#4A4A4A,,0.2,0,#d55e00,#cc79a7,,0,0.2,#0072b2,#0072b2,,-0.2,0.1,#009e73,#009e73,,A37XBH865833FE,001,2020-12-11_20h25.57.409,change-localization,2020.1.2,Win32,60,,,0,24,24,24,1,,
,,-0.117592593,-0.192592593,1,0,0,0.952035,probe3,"[-0.1,-0.2]",,,,,,26,probe3,0.05,0.05,0.1,-0.1,#e69f00,#e69f00,,-0.2,0,#56b4e9,#56b4e9,,-0.1,-0.2,#009e73,#d55e00,,-0.2,-0.1,#4A4A4A,#4A4A4A,,0.1,0,#cc79a7,#cc79a7,,A37XBH865833FE,001,2020-12-11_20h25.57.409,change-localization,2020.1.2,Win32,60,,,0,25,25,25,1,,
,,-0.203703704,-0.110185185,1,0,0,0.993775,probe5,"[-0.2,-0.1]",,,,,,27,probe5,0.05,0.05,-0.1,-0.2,#009e73,#009e73,,0.2,0,#cc79a7,#cc79a7,,-0.1,-0.1,#e69f00,#e69f00,,0.1,0.1,#d55e00,#d55e00,,-0.2,-0.1,#4A4A4A,#0072b2,,A37XBH865833FE,001,2020-12-11_20h25.57.409,change-localization,2020.1.2,Win32,60,,,0,26,26,26,1,,
,,0.087037037,0.113888889,1,0,0,0.92425,probe5,"[0.1,0.1]",,,,,,28,probe5,0.05,0.05,-0.1,0.2,#009e73,#009e73,,-0.2,0.1,#56b4e9,#56b4e9,,0,-0.2,#d55e00,#d55e00,,0.1,0,#0072b2,#0072b2,,0.1,0.1,#f0e442,#e69f00,,A37XBH865833FE,001,2020-12-11_20h25.57.409,change-localization,2020.1.2,Win32,60,,,0,27,27,27,1,,
,,-0.099074074,-0.098148148,1,0,0,1.21599,probe3,"[-0.1,-0.1]",,,,,,29,probe1,0.05,0.05,0.1,-0.1,#4A4A4A,#56b4e9,,-0.2,0.2,#e69f00,#e69f00,,-0.1,-0.1,#f0e442,#f0e442,,0.1,0.2,#0072b2,#0072b2,,-0.1,-0.2,#cc79a7,#cc79a7,,A37XBH865833FE,001,2020-12-11_20h25.57.409,change-localization,2020.1.2,Win32,60,,,0,28,28,28,1,,
,,-0.096296296,-0.203703704,1,0,0,0.95898,probe2,"[-0.1,-0.2]",,,,,,30,probe2,0.05,0.05,0.1,0.2,#f0e442,#f0e442,,-0.1,-0.2,#d55e00,#4A4A4A,,0,-0.2,#cc79a7,#cc79a7,,0.1,-0.2,#0072b2,#0072b2,,-0.2,0,#009e73,#009e73,,A37XBH865833FE,001,2020-12-11_20h25.57.409,change-localization,2020.1.2,Win32,60,,,0,29,29,29,1,,
,,0.10462963,0.00462963,1,0,0,1.36902,probe2,"[0.1,0]",,,,,,31,probe5,0.05,0.05,0,-0.2,#d55e00,#d55e00,,0.1,0,#e69f00,#e69f00,,0.1,0.2,#f0e442,#f0e442,,-0.2,-0.1,#cc79a7,#cc79a7,,-0.1,-0.1,#009e73,#4A4A4A,,A37XBH865833FE,001,2020-12-11_20h25.57.409,change-localization,2020.1.2,Win32,60,,,0,30,30,30,1,,
,,-0.114814815,-0.091666667,1,0,0,0.91029,probe2,"[-0.1,-0.1]",,,,,,32,probe3,0.05,0.05,0.2,0.2,#56b4e9,#56b4e9,,-0.1,-0.1,#009e73,#009e73,,0.2,0.1,#cc79a7,#0072b2,,-0.2,0.1,#4A4A4A,#4A4A4A,,-0.2,-0.1,#f0e442,#f0e442,,A37XBH865833FE,001,2020-12-11_20h25.57.409,change-localization,2020.1.2,Win32,60,,,0,31,31,31,1,,
,,-0.109259259,-0.103703704,1,0,0,0.813055,probe1,"[-0.1,-0.1]",,,,,,33,probe3,0.05,0.05,-0.1,-0.1,#0072b2,#0072b2,,0.1,0.1,#cc79a7,#cc79a7,,-0.1,0.1,#f0e442,#009e73,,0,-0.2,#56b4e9,#56b4e9,,0.1,0.2,#e69f00,#e69f00,,A37XBH865833FE,001,2020-12-11_20h25.57.409,change-localization,2020.1.2,Win32,60,,,0,32,32,32,1,,
,,0.101851852,-0.194444444,1,0,0,0.82691,probe3,"[0.1,-0.2]",,,,,,34,probe5,0.05,0.05,0.2,0.1,#e69f00,#e69f00,,-0.2,0.1,#cc79a7,#cc79a7,,0.1,-0.2,#0072b2,#0072b2,,0.2,-0.2,#d55e00,#d55e00,,-0.2,0,#56b4e9,#009e73,,A37XBH865833FE,001,2020-12-11_20h25.57.409,change-localization,2020.1.2,Win32,60,,,0,33,33,33,1,,
,,-0.012037037,0.2,1,0,0,0.99392,probe4,"[0,0.2]",,,,,,35,probe2,0.05,0.05,0.2,0,#56b4e9,#56b4e9,,0.2,-0.1,#e69f00,#009e73,,0.1,-0.1,#f0e442,#f0e442,,0,0.2,#d55e00,#d55e00,,0.1,0.2,#cc79a7,#cc79a7,,A37XBH865833FE,001,2020-12-11_20h25.57.409,change-localization,2020.1.2,Win32,60,,,0,34,34,34,1,,
,,-0.215740741,-0.097222222,1,0,0,1.01451,probe3,"[-0.2,-0.1]",,,,,,36,probe3,0.05,0.05,0,0.1,#4A4A4A,#4A4A4A,,0.2,0.1,#009e73,#009e73,,-0.2,-0.1,#f0e442,#56b4e9,,-0.1,-0.1,#e69f00,#e69f00,,0.1,0,#0072b2,#0072b2,,A37XBH865833FE,001,2020-12-11_20h25.57.409,change-localization,2020.1.2,Win32,60,,,0,35,35,35,1,,
,,-0.19537037,0.000925926,1,0,0,0.965875,probe3,"[-0.2,0]",,,,,,37,probe5,0.05,0.05,-0.2,0.1,#e69f00,#e69f00,,0.1,0.1,#0072b2,#0072b2,,-0.2,0,#d55e00,#d55e00,,-0.1,0.2,#cc79a7,#cc79a7,,0.1,0,#009e73,#f0e442,,A37XBH865833FE,001,2020-12-11_20h25.57.409,change-localization,2020.1.2,Win32,60,,,0,36,36,36,1,,
,,0.098148148,0.001851852,1,0,0,0.9242,probe4,"[0.1,0]",,,,,,38,probe4,0.05,0.05,0.2,-0.2,#4A4A4A,#4A4A4A,,0.2,0,#0072b2,#0072b2,,0.1,-0.1,#e69f00,#e69f00,,0.1,0,#d55e00,#cc79a7,,0,-0.1,#009e73,#009e73,,A37XBH865833FE,001,2020-12-11_20h25.57.409,change-localization,2020.1.2,Win32,60,,,0,37,37,37,1,,
,,-0.2,0.201851852,1,0,0,0.86865,probe4,"[-0.2,0.2]",,,,,,39,probe4,0.05,0.05,0.1,-0.1,#e69f00,#e69f00,,-0.2,-0.1,#cc79a7,#cc79a7,,0.2,0.1,#d55e00,#d55e00,,-0.2,0.2,#56b4e9,#f0e442,,0,-0.1,#0072b2,#0072b2,,A37XBH865833FE,001,2020-12-11_20h25.57.409,change-localization,2020.1.2,Win32,60,,,0,38,38,38,1,,
,,-0.201851852,0.103703704,1,0,0,0.8824,probe1,"[-0.2,0.1]",,,,,,40,probe1,0.05,0.05,-0.2,0.1,#4A4A4A,#d55e00,,0.2,0.2,#009e73,#009e73,,-0.1,-0.1,#cc79a7,#cc79a7,,0.2,-0.2,#e69f00,#e69f00,,0.1,-0.1,#56b4e9,#56b4e9,,A37XBH865833FE,001,2020-12-11_20h25.57.409,change-localization,2020.1.2,Win32,60,,,0,39,39,39,1,,
,,-0.096296296,0.00462963,1,0,0,0.90334,probe4,"[-0.1,0]",,,,,,41,probe4,0.05,0.05,0.2,0.1,#009e73,#009e73,,-0.2,-0.1,#0072b2,#0072b2,,-0.2,-0.2,#56b4e9,#56b4e9,,-0.1,0,#f0e442,#cc79a7,,0,-0.2,#d55e00,#d55e00,,A37XBH865833FE,001,2020-12-11_20h25.57.409,change-localization,2020.1.2,Win32,60,,,0,40,40,40,1,,
,,0.000925926,-0.194444444,1,0,0,0.875555,probe4,"[0,-0.2]",,,,,,42,probe4,0.05,0.05,-0.1,-0.2,#009e73,#009e73,,-0.1,0.1,#cc79a7,#cc79a7,,0.1,0.1,#56b4e9,#56b4e9,,0,-0.2,#e69f00,#d55e00,,-0.1,0,#0072b2,#0072b2,,A37XBH865833FE,001,2020-12-11_20h25.57.409,change-localization,2020.1.2,Win32,60,,,0,41,41,41,1,,
,,0.206481481,-0.107407407,1,0,0,0.79898,probe1,"[0.2,-0.1]",,,,,,43,probe1,0.05,0.05,0.2,-0.1,#e69f00,#009e73,,0.1,0,#cc79a7,#cc79a7,,-0.2,-0.2,#f0e442,#f0e442,,0.2,-0.2,#56b4e9,#56b4e9,,-0.2,0.1,#4A4A4A,#4A4A4A,,A37XBH865833FE,001,2020-12-11_20h25.57.409,change-localization,2020.1.2,Win32,60,,,0,42,42,42,1,,
,,0.203703704,0.098148148,1,0,0,1.38976,probe2,"[0.2,0.1]",,,,,,44,probe1,0.05,0.05,-0.1,0.2,#56b4e9,#e69f00,,0.2,0.1,#4A4A4A,#4A4A4A,,0.1,0,#cc79a7,#cc79a7,,0.1,0.2,#f0e442,#f0e442,,-0.1,-0.1,#d55e00,#d55e00,,A37XBH865833FE,001,2020-12-11_20h25.57.409,change-localization,2020.1.2,Win32,60,,,0,43,43,43,1,,
,,-0.113888889,0.106481481,1,0,0,0.9937,probe3,"[-0.1,0.1]",,,,,,45,probe3,0.05,0.05,-0.2,0.2,#0072b2,#0072b2,,-0.2,-0.1,#56b4e9,#56b4e9,,-0.1,0.1,#f0e442,#e69f00,,-0.1,0.2,#d55e00,#d55e00,,0,-0.2,#cc79a7,#cc79a7,,A37XBH865833FE,001,2020-12-11_20h25.57.409,change-localization,2020.1.2,Win32,60,,,0,44,44,44,1,,
,,0.182407407,0.094444444,1,0,0,0.611435,probe1,"[0.2,0.1]",,,,,,46,probe5,0.05,0.05,0.2,0.1,#0072b2,#0072b2,,0.1,0.2,#f0e442,#f0e442,,0.2,-0.2,#009e73,#009e73,,0.2,0.2,#4A4A4A,#4A4A4A,,0.2,0,#cc79a7,#e69f00,,A37XBH865833FE,001,2020-12-11_20h25.57.409,change-localization,2020.1.2,Win32,60,,,0,45,45,45,1,,
,,-0.009259259,-0.081481481,1,0,0,1.59822,probe1,"[0,-0.1]",,,,,,47,probe3,0.05,0.05,0,-0.1,#009e73,#009e73,,-0.2,0.2,#f0e442,#f0e442,,0.2,0.2,#56b4e9,#cc79a7,,-0.1,0.2,#4A4A4A,#4A4A4A,,-0.1,0.1,#e69f00,#e69f00,,A37XBH865833FE,001,2020-12-11_20h25.57.409,change-localization,2020.1.2,Win32,60,,,0,46,46,46,1,,
,,-0.108333333,0.012037037,1,0,0,0.986785,probe5,"[-0.1,0]",,,,,,48,probe4,0.05,0.05,0.2,-0.2,#cc79a7,#cc79a7,,-0.1,0.1,#009e73,#009e73,,0.1,-0.2,#f0e442,#f0e442,,-0.2,-0.1,#d55e00,#0072b2,,-0.1,0,#56b4e9,#56b4e9,,A37XBH865833FE,001,2020-12-11_20h25.57.409,change-localization,2020.1.2,Win32,60,,,0,47,47,47,1,,
,,0.110185185,0.198148148,1,0,0,0.98661,probe4,"[0.1,0.2]",,,,,,49,probe2,0.05,0.05,0,-0.2,#e69f00,#e69f00,,-0.2,0,#cc79a7,#0072b2,,-0.1,0.2,#f0e442,#f0e442,,0.1,0.2,#4A4A4A,#4A4A4A,,-0.1,-0.1,#56b4e9,#56b4e9,,A37XBH865833FE,001,2020-12-11_20h25.57.409,change-localization,2020.1.2,Win32,60,,,0,48,48,48,1,,
,,0.006481481,0.099074074,1,0,0,0.94493,probe5,"[0,0.1]",,,,,,50,probe4,0.05,0.05,0.2,0.1,#0072b2,#0072b2,,0.1,0.1,#cc79a7,#cc79a7,,0.1,-0.2,#56b4e9,#56b4e9,,-0.1,0,#009e73,#e69f00,,0,0.1,#d55e00,#d55e00,,A37XBH865833FE,001,2020-12-11_20h25.57.409,change-localization,2020.1.2,Win32,60,,,0,49,49,49,1,,
,,,,,,,,,,,,,,,,,,,,,,,,,,,,,,,,,,,,,,,,,,,,A37XBH865833FE,001,2020-12-11_20h25.57.409,change-localization,2020.1.2,Win32,60,,,,,,,,c,10.846985
