key_resp.keys,key_resp.rt,mouse.x,mouse.y,mouse.leftButton,mouse.midButton,mouse.rightButton,mouse.time,mouse.clicked_name,mouse.clicked_pos,training.thisRepN,training.thisTrialN,training.thisN,training.thisIndex,training.ran,trial,answer,height,width,x1,y1,stim_color1,probe_color1,copy_color1,x2,y2,stim_color2,probe_color2,copy_color2,x3,y3,stim_color3,probe_color3,copy_color3,x4,y4,stim_color4,probe_color4,copy_color4,x5,y5,stim_color5,probe_color5,copy_color5,participant,session,date,expName,psychopyVersion,OS,frameRate,key_resp_2.keys,key_resp_2.rt,trials.thisRepN,trials.thisTrialN,trials.thisN,trials.thisIndex,trials.ran,completion_keys.keys,completion_keys.rt
c,64.801855,0.197222222,-0.105555556,1,0,0,91.440695,probe4,"[0.2,-0.1]",0,0,0,0,1,1,probe4,0.05,0.05,0.1,0.2,#0072b2,#0072b2,#0072b2,0.1,-0.1,#e69f00,#e69f00,#e69f00,-0.1,-0.2,#cc79a7,#cc79a7,#cc79a7,0.2,-0.1,#4A4A4A,#f0e442,#FFFFFF,0.2,0,#009e73,#009e73,#009e73,A3ASK7MW6P4RZQ,001,2020-12-12_20h36.16.000,change-localization,2020.1.2,Win32,60,,,,,,,,,
,,-0.102777778,-0.00462963,1,0,0,31.21749,probe5,"[-0.1,0]",0,1,1,1,1,2,probe1,0.05,0.05,0.2,0,#d55e00,#009e73,#FFFFFF,0.2,-0.1,#e69f00,#e69f00,#e69f00,0.1,0,#4A4A4A,#4A4A4A,#4A4A4A,-0.1,0.1,#56b4e9,#56b4e9,#56b4e9,-0.1,0,#cc79a7,#cc79a7,#cc79a7,A3ASK7MW6P4RZQ,001,2020-12-12_20h36.16.000,change-localization,2020.1.2,Win32,60,,,,,,,,,
,,0.197222222,-0.113888889,1,0,0,8.86735,probe2,"[0.2,-0.1]",0,2,2,2,1,3,probe1,0.05,0.05,-0.2,-0.2,#f0e442,#009e73,#FFFFFF,0.2,-0.1,#d55e00,#d55e00,#d55e00,-0.2,0,#4A4A4A,#4A4A4A,#4A4A4A,-0.1,-0.1,#0072b2,#0072b2,#0072b2,0,-0.1,#56b4e9,#56b4e9,#56b4e9,A3ASK7MW6P4RZQ,001,2020-12-12_20h36.16.000,change-localization,2020.1.2,Win32,60,,,,,,,,,
,,0.189814815,0.194444444,1,0,0,6.70047,probe1,"[0.2,0.2]",0,3,3,3,1,4,probe1,0.05,0.05,0.2,0.2,#d55e00,#56b4e9,#FFFFFF,-0.2,0.2,#f0e442,#f0e442,#f0e442,0.2,-0.2,#0072b2,#0072b2,#0072b2,-0.2,0,#cc79a7,#cc79a7,#cc79a7,-0.2,0.1,#4A4A4A,#4A4A4A,#4A4A4A,A3ASK7MW6P4RZQ,001,2020-12-12_20h36.16.000,change-localization,2020.1.2,Win32,60,,,,,,,,,
,,0.198148148,0.003703704,1,0,0,3.783815,probe5,"[0.2,0]",0,4,4,4,1,5,probe3,0.05,0.05,-0.2,0.1,#56b4e9,#56b4e9,#56b4e9,0,0.2,#009e73,#009e73,#009e73,0,0.1,#0072b2,#cc79a7,#FFFFFF,-0.1,-0.1,#4A4A4A,#4A4A4A,#4A4A4A,0.2,0,#f0e442,#f0e442,#f0e442,A3ASK7MW6P4RZQ,001,2020-12-12_20h36.16.000,change-localization,2020.1.2,Win32,60,,,,,,,,,
,,-0.109259259,0.106481481,1,0,0,3.166615,probe1,"[-0.1,0.1]",0,5,5,5,1,6,probe5,0.05,0.05,-0.1,0.1,#f0e442,#f0e442,#f0e442,0,0.1,#009e73,#009e73,#009e73,-0.2,0,#4A4A4A,#4A4A4A,#4A4A4A,0,-0.2,#d55e00,#d55e00,#d55e00,0.1,0,#cc79a7,#0072b2,#FFFFFF,A3ASK7MW6P4RZQ,001,2020-12-12_20h36.16.000,change-localization,2020.1.2,Win32,60,,,,,,,,,
,,-0.09537037,-0.196296296,1,0,0,2.800405,probe3,"[-0.1,-0.2]",0,6,6,6,1,7,probe2,0.05,0.05,-0.2,-0.2,#4A4A4A,#4A4A4A,#4A4A4A,0.1,0.2,#0072b2,#d55e00,#FFFFFF,-0.1,-0.2,#f0e442,#f0e442,#f0e442,-0.2,0.2,#009e73,#009e73,#009e73,0.2,0.2,#e69f00,#e69f00,#e69f00,A3ASK7MW6P4RZQ,001,2020-12-12_20h36.16.000,change-localization,2020.1.2,Win32,60,,,,,,,,,
,,-0.112037037,0.005555556,1,0,0,1.422845,probe2,"[-0.1,0]",0,7,7,7,1,8,probe1,0.05,0.05,0.1,-0.2,#009e73,#f0e442,#FFFFFF,-0.1,0,#d55e00,#d55e00,#d55e00,-0.1,0.1,#4A4A4A,#4A4A4A,#4A4A4A,-0.2,0,#cc79a7,#cc79a7,#cc79a7,0.2,0,#e69f00,#e69f00,#e69f00,A3ASK7MW6P4RZQ,001,2020-12-12_20h36.16.000,change-localization,2020.1.2,Win32,60,,,,,,,,,
,,0.099074074,-0.20462963,1,0,0,3.450355,probe1,"[0.1,-0.2]",0,8,8,8,1,9,probe1,0.05,0.05,0.1,-0.2,#0072b2,#e69f00,#FFFFFF,-0.1,0.2,#f0e442,#f0e442,#f0e442,-0.2,0.1,#d55e00,#d55e00,#d55e00,0.2,0.2,#cc79a7,#cc79a7,#cc79a7,0.1,0.1,#56b4e9,#56b4e9,#56b4e9,A3ASK7MW6P4RZQ,001,2020-12-12_20h36.16.000,change-localization,2020.1.2,Win32,60,,,,,,,,,
,,0.099074074,0.083333333,1,0,0,1.96762,probe5,"[0.1,0.1]",0,9,9,9,1,10,probe1,0.05,0.05,-0.1,-0.1,#4A4A4A,#f0e442,#FFFFFF,0,0.2,#cc79a7,#cc79a7,#cc79a7,0.2,-0.2,#e69f00,#e69f00,#e69f00,0.1,-0.2,#009e73,#009e73,#009e73,0.1,0.1,#d55e00,#d55e00,#d55e00,A3ASK7MW6P4RZQ,001,2020-12-12_20h36.16.000,change-localization,2020.1.2,Win32,60,,,,,,,,,
,,-0.1,0.197222222,1,0,0,3.849915,probe2,"[-0.1,0.2]",,,,,,1,probe2,0.05,0.05,-0.2,0.2,#009e73,#009e73,,-0.1,0.2,#f0e442,#e69f00,,-0.1,0,#0072b2,#0072b2,,0,-0.2,#cc79a7,#cc79a7,,0,0.2,#d55e00,#d55e00,,A3ASK7MW6P4RZQ,001,2020-12-12_20h36.16.000,change-localization,2020.1.2,Win32,60,c,16.10813,0,0,0,0,1,,
,,-0.002777778,-0.109259259,1,0,0,8.850285,probe5,"[0,-0.1]",,,,,,2,probe5,0.05,0.05,0,0.1,#009e73,#009e73,,0.2,0.1,#4A4A4A,#4A4A4A,,-0.1,-0.1,#cc79a7,#cc79a7,,0.1,0.1,#d55e00,#d55e00,,0,-0.1,#56b4e9,#e69f00,,A3ASK7MW6P4RZQ,001,2020-12-12_20h36.16.000,change-localization,2020.1.2,Win32,60,,,0,1,1,1,1,,
,,-0.091666667,0.09537037,1,0,0,3.033375,probe4,"[-0.1,0.1]",,,,,,3,probe4,0.05,0.05,0.1,-0.1,#56b4e9,#56b4e9,,0.2,0,#f0e442,#f0e442,,0.2,-0.1,#e69f00,#e69f00,,-0.1,0.1,#4A4A4A,#009e73,,-0.1,0.2,#d55e00,#d55e00,,A3ASK7MW6P4RZQ,001,2020-12-12_20h36.16.000,change-localization,2020.1.2,Win32,60,,,0,2,2,2,1,,
,,-0.189814815,-0.005555556,1,0,0,1.633975,probe5,"[-0.2,0]",,,,,,4,probe5,0.05,0.05,0.2,0,#56b4e9,#56b4e9,,-0.2,-0.2,#cc79a7,#cc79a7,,0,0.2,#4A4A4A,#4A4A4A,,0.2,-0.2,#e69f00,#e69f00,,-0.2,0,#f0e442,#009e73,,A3ASK7MW6P4RZQ,001,2020-12-12_20h36.16.000,change-localization,2020.1.2,Win32,60,,,0,3,3,3,1,,
,,0.092592593,0.101851852,1,0,0,7.91669,probe5,"[0.1,0.1]",,,,,,5,probe3,0.05,0.05,-0.2,0.1,#4A4A4A,#4A4A4A,,0.2,0.2,#009e73,#009e73,,-0.1,-0.1,#0072b2,#f0e442,,0.2,0,#cc79a7,#cc79a7,,0.1,0.1,#e69f00,#e69f00,,A3ASK7MW6P4RZQ,001,2020-12-12_20h36.16.000,change-localization,2020.1.2,Win32,60,,,0,4,4,4,1,,
,,-0.194444444,0.197222222,1,0,0,4.483335,probe2,"[-0.2,0.2]",,,,,,6,probe4,0.05,0.05,-0.1,0.1,#d55e00,#d55e00,,-0.2,0.2,#0072b2,#0072b2,,0,-0.1,#e69f00,#e69f00,,0,0.2,#56b4e9,#4A4A4A,,-0.2,-0.2,#009e73,#009e73,,A3ASK7MW6P4RZQ,001,2020-12-12_20h36.16.000,change-localization,2020.1.2,Win32,60,,,0,5,5,5,1,,
,,0.208333333,-0.096296296,1,0,0,5.308605,probe1,"[0.2,-0.1]",,,,,,7,probe4,0.05,0.05,0.2,-0.1,#56b4e9,#56b4e9,,-0.1,-0.1,#e69f00,#e69f00,,-0.2,0.2,#009e73,#009e73,,0.2,0.2,#cc79a7,#4A4A4A,,0.2,-0.2,#d55e00,#d55e00,,A3ASK7MW6P4RZQ,001,2020-12-12_20h36.16.000,change-localization,2020.1.2,Win32,60,,,0,6,6,6,1,,
,,0.193518519,-0.109259259,1,0,0,2.167075,probe5,"[0.2,-0.1]",,,,,,8,probe4,0.05,0.05,-0.2,0.1,#e69f00,#e69f00,,0.1,0.2,#cc79a7,#cc79a7,,0.2,0.1,#4A4A4A,#4A4A4A,,-0.2,0.2,#56b4e9,#d55e00,,0.2,-0.1,#0072b2,#0072b2,,A3ASK7MW6P4RZQ,001,2020-12-12_20h36.16.000,change-localization,2020.1.2,Win32,60,,,0,7,7,7,1,,
,,-0.20462963,0.094444444,1,0,0,1.951545,probe3,"[-0.2,0.1]",,,,,,9,probe5,0.05,0.05,-0.1,0,#4A4A4A,#4A4A4A,,0.1,0.1,#56b4e9,#56b4e9,,-0.2,0.1,#009e73,#009e73,,0.2,0.1,#cc79a7,#cc79a7,,0.2,0.2,#d55e00,#f0e442,,A3ASK7MW6P4RZQ,001,2020-12-12_20h36.16.000,change-localization,2020.1.2,Win32,60,,,0,8,8,8,1,,
,,-0.186111111,0.107407407,1,0,0,2.333425,probe4,"[-0.2,0.1]",,,,,,10,probe3,0.05,0.05,0.2,0.2,#f0e442,#f0e442,,0.1,-0.1,#e69f00,#e69f00,,0,0.1,#cc79a7,#4A4A4A,,-0.2,0.1,#56b4e9,#56b4e9,,0.2,0,#0072b2,#0072b2,,A3ASK7MW6P4RZQ,001,2020-12-12_20h36.16.000,change-localization,2020.1.2,Win32,60,,,0,9,9,9,1,,
,,0.087962963,0.203703704,1,0,0,2.783215,probe2,"[0.1,0.2]",,,,,,11,probe5,0.05,0.05,0.2,0.2,#4A4A4A,#4A4A4A,,0.1,0.2,#0072b2,#0072b2,,0.1,-0.1,#cc79a7,#cc79a7,,0,-0.2,#009e73,#009e73,,0.1,-0.2,#f0e442,#d55e00,,A3ASK7MW6P4RZQ,001,2020-12-12_20h36.16.000,change-localization,2020.1.2,Win32,60,,,0,10,10,10,1,,
,,0.085185185,-0.000925926,1,0,0,1.550285,probe4,"[0.1,0]",,,,,,12,probe4,0.05,0.05,-0.1,-0.1,#009e73,#009e73,,-0.1,0,#56b4e9,#56b4e9,,-0.1,-0.2,#0072b2,#0072b2,,0.1,0,#d55e00,#f0e442,,0,-0.1,#cc79a7,#cc79a7,,A3ASK7MW6P4RZQ,001,2020-12-12_20h36.16.000,change-localization,2020.1.2,Win32,60,,,0,11,11,11,1,,
,,0.096296296,-0.1,1,0,0,4.016455,probe2,"[0.1,-0.1]",,,,,,13,probe4,0.05,0.05,0,-0.1,#f0e442,#f0e442,,0.1,-0.1,#d55e00,#d55e00,,0.1,0.1,#0072b2,#0072b2,,-0.2,0.2,#cc79a7,#4A4A4A,,0.1,0.2,#009e73,#009e73,,A3ASK7MW6P4RZQ,001,2020-12-12_20h36.16.000,change-localization,2020.1.2,Win32,60,,,0,12,12,12,1,,
,,0.093518519,0.193518519,1,0,0,2.76676,probe5,"[0.1,0.2]",,,,,,14,probe5,0.05,0.05,0,0.2,#cc79a7,#cc79a7,,0,-0.1,#4A4A4A,#4A4A4A,,-0.2,0,#56b4e9,#56b4e9,,0.1,0.1,#0072b2,#0072b2,,0.1,0.2,#009e73,#e69f00,,A3ASK7MW6P4RZQ,001,2020-12-12_20h36.16.000,change-localization,2020.1.2,Win32,60,,,0,13,13,13,1,,
,,0.093518519,-0.100925926,1,0,0,1.400175,probe4,"[0.1,-0.1]",,,,,,15,probe3,0.05,0.05,0.2,0.2,#cc79a7,#cc79a7,,0,0.2,#56b4e9,#56b4e9,,0.2,0.1,#d55e00,#4A4A4A,,0.1,-0.1,#f0e442,#f0e442,,0.2,-0.1,#0072b2,#0072b2,,A3ASK7MW6P4RZQ,001,2020-12-12_20h36.16.000,change-localization,2020.1.2,Win32,60,,,0,14,14,14,1,,
,,-0.209259259,0.212962963,1,0,0,1.5,probe2,"[-0.2,0.2]",,,,,,16,probe3,0.05,0.05,-0.2,-0.1,#f0e442,#f0e442,,-0.2,0.2,#d55e00,#d55e00,,0.1,0.1,#009e73,#4A4A4A,,-0.2,0.1,#56b4e9,#56b4e9,,0,-0.1,#cc79a7,#cc79a7,,A3ASK7MW6P4RZQ,001,2020-12-12_20h36.16.000,change-localization,2020.1.2,Win32,60,,,0,15,15,15,1,,
,,0.008333333,-0.198148148,1,0,0,1.4336,probe2,"[0,-0.2]",,,,,,17,probe3,0.05,0.05,0.2,-0.1,#cc79a7,#cc79a7,,0,-0.2,#0072b2,#0072b2,,0,0.1,#4A4A4A,#e69f00,,-0.2,-0.1,#f0e442,#f0e442,,-0.1,-0.1,#009e73,#009e73,,A3ASK7MW6P4RZQ,001,2020-12-12_20h36.16.000,change-localization,2020.1.2,Win32,60,,,0,16,16,16,1,,
,,-0.103703704,0.106481481,1,0,0,1.109925,probe1,"[-0.1,0.1]",,,,,,18,probe3,0.05,0.05,-0.1,0.1,#d55e00,#d55e00,,-0.1,0.2,#e69f00,#e69f00,,0.2,0,#009e73,#0072b2,,0.1,-0.1,#cc79a7,#cc79a7,,-0.2,0.2,#4A4A4A,#4A4A4A,,A3ASK7MW6P4RZQ,001,2020-12-12_20h36.16.000,change-localization,2020.1.2,Win32,60,,,0,17,17,17,1,,
,,-0.107407407,0.20462963,1,0,0,1.100055,probe1,"[-0.1,0.2]",,,,,,19,probe3,0.05,0.05,-0.1,0.2,#0072b2,#0072b2,,0,-0.1,#4A4A4A,#4A4A4A,,-0.1,0.1,#e69f00,#009e73,,0.2,0.1,#d55e00,#d55e00,,-0.2,0.1,#cc79a7,#cc79a7,,A3ASK7MW6P4RZQ,001,2020-12-12_20h36.16.000,change-localization,2020.1.2,Win32,60,,,0,18,18,18,1,,
,,0.202777778,-0.000925926,1,0,0,1.55012,probe1,"[0.2,0]",,,,,,20,probe4,0.05,0.05,0.2,0,#56b4e9,#56b4e9,,-0.1,0.2,#009e73,#009e73,,-0.2,-0.2,#e69f00,#e69f00,,0,-0.1,#f0e442,#cc79a7,,-0.1,0,#4A4A4A,#4A4A4A,,A3ASK7MW6P4RZQ,001,2020-12-12_20h36.16.000,change-localization,2020.1.2,Win32,60,,,0,19,19,19,1,,
,,0.214814815,0.108333333,1,0,0,4.983325,probe5,"[0.2,0.1]",,,,,,21,probe3,0.05,0.05,-0.1,0.1,#0072b2,#0072b2,,-0.1,0.2,#009e73,#009e73,,0.2,0,#56b4e9,#4A4A4A,,-0.2,0.2,#f0e442,#f0e442,,0.2,0.1,#d55e00,#d55e00,,A3ASK7MW6P4RZQ,001,2020-12-12_20h36.16.000,change-localization,2020.1.2,Win32,60,,,0,20,20,20,1,,
,,0.22037037,-0.001851852,1,0,0,1.69947,probe2,"[0.2,0]",,,,,,22,probe4,0.05,0.05,0.2,-0.1,#d55e00,#d55e00,,0.2,0,#56b4e9,#56b4e9,,0.1,-0.2,#cc79a7,#cc79a7,,-0.2,-0.1,#4A4A4A,#009e73,,0,-0.2,#e69f00,#e69f00,,A3ASK7MW6P4RZQ,001,2020-12-12_20h36.16.000,change-localization,2020.1.2,Win32,60,,,0,21,21,21,1,,
,,0.098148148,0.102777778,1,0,0,1.46677,probe1,"[0.1,0.1]",,,,,,23,probe4,0.05,0.05,0.1,0.1,#56b4e9,#56b4e9,,-0.2,-0.1,#0072b2,#0072b2,,0.2,0,#d55e00,#d55e00,,-0.2,-0.2,#cc79a7,#009e73,,0.1,-0.2,#4A4A4A,#4A4A4A,,A3ASK7MW6P4RZQ,001,2020-12-12_20h36.16.000,change-localization,2020.1.2,Win32,60,,,0,22,22,22,1,,
,,-0.213888889,0.082407407,1,0,0,1.650135,probe5,"[-0.2,0.1]",,,,,,24,probe2,0.05,0.05,-0.1,-0.2,#4A4A4A,#4A4A4A,,0.2,0.2,#d55e00,#e69f00,,0.1,-0.1,#f0e442,#f0e442,,0.1,0.1,#56b4e9,#56b4e9,,-0.2,0.1,#cc79a7,#cc79a7,,A3ASK7MW6P4RZQ,001,2020-12-12_20h36.16.000,change-localization,2020.1.2,Win32,60,,,0,23,23,23,1,,
,,-0.194444444,-0.182407407,1,0,0,1.533375,probe1,"[-0.2,-0.2]",,,,,,25,probe3,0.05,0.05,-0.2,-0.2,#f0e442,#f0e442,,-0.1,-0.1,#4A4A4A,#4A4A4A,,0.2,0,#d55e00,#cc79a7,,0,0.2,#0072b2,#0072b2,,-0.2,0.1,#009e73,#009e73,,A3ASK7MW6P4RZQ,001,2020-12-12_20h36.16.000,change-localization,2020.1.2,Win32,60,,,0,24,24,24,1,,
,,-0.211111111,0.011111111,1,0,0,1.65017,probe2,"[-0.2,0]",,,,,,26,probe3,0.05,0.05,0.1,-0.1,#e69f00,#e69f00,,-0.2,0,#56b4e9,#56b4e9,,-0.1,-0.2,#009e73,#d55e00,,-0.2,-0.1,#4A4A4A,#4A4A4A,,0.1,0,#cc79a7,#cc79a7,,A3ASK7MW6P4RZQ,001,2020-12-12_20h36.16.000,change-localization,2020.1.2,Win32,60,,,0,25,25,25,1,,
,,0.100925926,0.089814815,1,0,0,1.55002,probe4,"[0.1,0.1]",,,,,,27,probe5,0.05,0.05,-0.1,-0.2,#009e73,#009e73,,0.2,0,#cc79a7,#cc79a7,,-0.1,-0.1,#e69f00,#e69f00,,0.1,0.1,#d55e00,#d55e00,,-0.2,-0.1,#4A4A4A,#0072b2,,A3ASK7MW6P4RZQ,001,2020-12-12_20h36.16.000,change-localization,2020.1.2,Win32,60,,,0,26,26,26,1,,
,,-0.090740741,0.188888889,1,0,0,1.666525,probe1,"[-0.1,0.2]",,,,,,28,probe5,0.05,0.05,-0.1,0.2,#009e73,#009e73,,-0.2,0.1,#56b4e9,#56b4e9,,0,-0.2,#d55e00,#d55e00,,0.1,0,#0072b2,#0072b2,,0.1,0.1,#f0e442,#e69f00,,A3ASK7MW6P4RZQ,001,2020-12-12_20h36.16.000,change-localization,2020.1.2,Win32,60,,,0,27,27,27,1,,
,,0.097222222,0.202777778,1,0,0,0.916715,probe4,"[0.1,0.2]",,,,,,29,probe1,0.05,0.05,0.1,-0.1,#4A4A4A,#56b4e9,,-0.2,0.2,#e69f00,#e69f00,,-0.1,-0.1,#f0e442,#f0e442,,0.1,0.2,#0072b2,#0072b2,,-0.1,-0.2,#cc79a7,#cc79a7,,A3ASK7MW6P4RZQ,001,2020-12-12_20h36.16.000,change-localization,2020.1.2,Win32,60,,,0,28,28,28,1,,
,,-0.009259259,-0.196296296,1,0,0,1.94986,probe3,"[0,-0.2]",,,,,,30,probe2,0.05,0.05,0.1,0.2,#f0e442,#f0e442,,-0.1,-0.2,#d55e00,#4A4A4A,,0,-0.2,#cc79a7,#cc79a7,,0.1,-0.2,#0072b2,#0072b2,,-0.2,0,#009e73,#009e73,,A3ASK7MW6P4RZQ,001,2020-12-12_20h36.16.000,change-localization,2020.1.2,Win32,60,,,0,29,29,29,1,,
,,0.077777778,-0.001851852,1,0,0,0.91672,probe2,"[0.1,0]",,,,,,31,probe5,0.05,0.05,0,-0.2,#d55e00,#d55e00,,0.1,0,#e69f00,#e69f00,,0.1,0.2,#f0e442,#f0e442,,-0.2,-0.1,#cc79a7,#cc79a7,,-0.1,-0.1,#009e73,#4A4A4A,,A3ASK7MW6P4RZQ,001,2020-12-12_20h36.16.000,change-localization,2020.1.2,Win32,60,,,0,30,30,30,1,,
,,-0.209259259,-0.091666667,1,0,0,0.85081,probe5,"[-0.2,-0.1]",,,,,,32,probe3,0.05,0.05,0.2,0.2,#56b4e9,#56b4e9,,-0.1,-0.1,#009e73,#009e73,,0.2,0.1,#cc79a7,#0072b2,,-0.2,0.1,#4A4A4A,#4A4A4A,,-0.2,-0.1,#f0e442,#f0e442,,A3ASK7MW6P4RZQ,001,2020-12-12_20h36.16.000,change-localization,2020.1.2,Win32,60,,,0,31,31,31,1,,
,,-0.098148148,0.112962963,1,0,0,0.832785,probe3,"[-0.1,0.1]",,,,,,33,probe3,0.05,0.05,-0.1,-0.1,#0072b2,#0072b2,,0.1,0.1,#cc79a7,#cc79a7,,-0.1,0.1,#f0e442,#009e73,,0,-0.2,#56b4e9,#56b4e9,,0.1,0.2,#e69f00,#e69f00,,A3ASK7MW6P4RZQ,001,2020-12-12_20h36.16.000,change-localization,2020.1.2,Win32,60,,,0,32,32,32,1,,
,,-0.194444444,-0.009259259,1,0,0,1.10879,probe5,"[-0.2,0]",,,,,,34,probe5,0.05,0.05,0.2,0.1,#e69f00,#e69f00,,-0.2,0.1,#cc79a7,#cc79a7,,0.1,-0.2,#0072b2,#0072b2,,0.2,-0.2,#d55e00,#d55e00,,-0.2,0,#56b4e9,#009e73,,A3ASK7MW6P4RZQ,001,2020-12-12_20h36.16.000,change-localization,2020.1.2,Win32,60,,,0,33,33,33,1,,
,,0.002777778,0.210185185,1,0,0,1.41668,probe4,"[0,0.2]",,,,,,35,probe2,0.05,0.05,0.2,0,#56b4e9,#56b4e9,,0.2,-0.1,#e69f00,#009e73,,0.1,-0.1,#f0e442,#f0e442,,0,0.2,#d55e00,#d55e00,,0.1,0.2,#cc79a7,#cc79a7,,A3ASK7MW6P4RZQ,001,2020-12-12_20h36.16.000,change-localization,2020.1.2,Win32,60,,,0,34,34,34,1,,
,,-0.110185185,-0.087037037,1,0,0,0.69967,probe4,"[-0.1,-0.1]",,,,,,36,probe3,0.05,0.05,0,0.1,#4A4A4A,#4A4A4A,,0.2,0.1,#009e73,#009e73,,-0.2,-0.1,#f0e442,#56b4e9,,-0.1,-0.1,#e69f00,#e69f00,,0.1,0,#0072b2,#0072b2,,A3ASK7MW6P4RZQ,001,2020-12-12_20h36.16.000,change-localization,2020.1.2,Win32,60,,,0,35,35,35,1,,
,,-0.198148148,0.093518519,1,0,0,0.816665,probe1,"[-0.2,0.1]",,,,,,37,probe5,0.05,0.05,-0.2,0.1,#e69f00,#e69f00,,0.1,0.1,#0072b2,#0072b2,,-0.2,0,#d55e00,#d55e00,,-0.1,0.2,#cc79a7,#cc79a7,,0.1,0,#009e73,#f0e442,,A3ASK7MW6P4RZQ,001,2020-12-12_20h36.16.000,change-localization,2020.1.2,Win32,60,,,0,36,36,36,1,,
,,0.198148148,-0.02037037,1,0,0,1.1002,probe2,"[0.2,0]",,,,,,38,probe4,0.05,0.05,0.2,-0.2,#4A4A4A,#4A4A4A,,0.2,0,#0072b2,#0072b2,,0.1,-0.1,#e69f00,#e69f00,,0.1,0,#d55e00,#cc79a7,,0,-0.1,#009e73,#009e73,,A3ASK7MW6P4RZQ,001,2020-12-12_20h36.16.000,change-localization,2020.1.2,Win32,60,,,0,37,37,37,1,,
,,0.07037037,-0.096296296,1,0,0,1.499675,probe1,"[0.1,-0.1]",,,,,,39,probe4,0.05,0.05,0.1,-0.1,#e69f00,#e69f00,,-0.2,-0.1,#cc79a7,#cc79a7,,0.2,0.1,#d55e00,#d55e00,,-0.2,0.2,#56b4e9,#f0e442,,0,-0.1,#0072b2,#0072b2,,A3ASK7MW6P4RZQ,001,2020-12-12_20h36.16.000,change-localization,2020.1.2,Win32,60,,,0,38,38,38,1,,
,,0.193518519,0.206481481,1,0,0,1.733405,probe2,"[0.2,0.2]",,,,,,40,probe1,0.05,0.05,-0.2,0.1,#4A4A4A,#d55e00,,0.2,0.2,#009e73,#009e73,,-0.1,-0.1,#cc79a7,#cc79a7,,0.2,-0.2,#e69f00,#e69f00,,0.1,-0.1,#56b4e9,#56b4e9,,A3ASK7MW6P4RZQ,001,2020-12-12_20h36.16.000,change-localization,2020.1.2,Win32,60,,,0,39,39,39,1,,
,,-0.200925926,-0.099074074,1,0,0,0.98279,probe2,"[-0.2,-0.1]",,,,,,41,probe4,0.05,0.05,0.2,0.1,#009e73,#009e73,,-0.2,-0.1,#0072b2,#0072b2,,-0.2,-0.2,#56b4e9,#56b4e9,,-0.1,0,#f0e442,#cc79a7,,0,-0.2,#d55e00,#d55e00,,A3ASK7MW6P4RZQ,001,2020-12-12_20h36.16.000,change-localization,2020.1.2,Win32,60,,,0,40,40,40,1,,
,,0.10462963,0.117592593,1,0,0,0.79934,probe3,"[0.1,0.1]",,,,,,42,probe4,0.05,0.05,-0.1,-0.2,#009e73,#009e73,,-0.1,0.1,#cc79a7,#cc79a7,,0.1,0.1,#56b4e9,#56b4e9,,0,-0.2,#e69f00,#d55e00,,-0.1,0,#0072b2,#0072b2,,A3ASK7MW6P4RZQ,001,2020-12-12_20h36.16.000,change-localization,2020.1.2,Win32,60,,,0,41,41,41,1,,
,,0.191666667,-0.210185185,1,0,0,2.149405,probe4,"[0.2,-0.2]",,,,,,43,probe1,0.05,0.05,0.2,-0.1,#e69f00,#009e73,,0.1,0,#cc79a7,#cc79a7,,-0.2,-0.2,#f0e442,#f0e442,,0.2,-0.2,#56b4e9,#56b4e9,,-0.2,0.1,#4A4A4A,#4A4A4A,,A3ASK7MW6P4RZQ,001,2020-12-12_20h36.16.000,change-localization,2020.1.2,Win32,60,,,0,42,42,42,1,,
,,0.098148148,0.021296296,1,0,0,0.84877,probe3,"[0.1,0]",,,,,,44,probe1,0.05,0.05,-0.1,0.2,#56b4e9,#e69f00,,0.2,0.1,#4A4A4A,#4A4A4A,,0.1,0,#cc79a7,#cc79a7,,0.1,0.2,#f0e442,#f0e442,,-0.1,-0.1,#d55e00,#d55e00,,A3ASK7MW6P4RZQ,001,2020-12-12_20h36.16.000,change-localization,2020.1.2,Win32,60,,,0,43,43,43,1,,
,,-0.110185185,0.200925926,1,0,0,0.816145,probe4,"[-0.1,0.2]",,,,,,45,probe3,0.05,0.05,-0.2,0.2,#0072b2,#0072b2,,-0.2,-0.1,#56b4e9,#56b4e9,,-0.1,0.1,#f0e442,#e69f00,,-0.1,0.2,#d55e00,#d55e00,,0,-0.2,#cc79a7,#cc79a7,,A3ASK7MW6P4RZQ,001,2020-12-12_20h36.16.000,change-localization,2020.1.2,Win32,60,,,0,44,44,44,1,,
,,0.197222222,-0.205555556,1,0,0,4.083425,probe3,"[0.2,-0.2]",,,,,,46,probe5,0.05,0.05,0.2,0.1,#0072b2,#0072b2,,0.1,0.2,#f0e442,#f0e442,,0.2,-0.2,#009e73,#009e73,,0.2,0.2,#4A4A4A,#4A4A4A,,0.2,0,#cc79a7,#e69f00,,A3ASK7MW6P4RZQ,001,2020-12-12_20h36.16.000,change-localization,2020.1.2,Win32,60,,,0,45,45,45,1,,
,,-0.191666667,0.200925926,1,0,0,1.933875,probe2,"[-0.2,0.2]",,,,,,47,probe3,0.05,0.05,0,-0.1,#009e73,#009e73,,-0.2,0.2,#f0e442,#f0e442,,0.2,0.2,#56b4e9,#cc79a7,,-0.1,0.2,#4A4A4A,#4A4A4A,,-0.1,0.1,#e69f00,#e69f00,,A3ASK7MW6P4RZQ,001,2020-12-12_20h36.16.000,change-localization,2020.1.2,Win32,60,,,0,46,46,46,1,,
,,-0.194444444,-0.101851852,1,0,0,4.149875,probe4,"[-0.2,-0.1]",,,,,,48,probe4,0.05,0.05,0.2,-0.2,#cc79a7,#cc79a7,,-0.1,0.1,#009e73,#009e73,,0.1,-0.2,#f0e442,#f0e442,,-0.2,-0.1,#d55e00,#0072b2,,-0.1,0,#56b4e9,#56b4e9,,A3ASK7MW6P4RZQ,001,2020-12-12_20h36.16.000,change-localization,2020.1.2,Win32,60,,,0,47,47,47,1,,
,,-0.102777778,0.19537037,1,0,0,7.88343,probe3,"[-0.1,0.2]",,,,,,49,probe2,0.05,0.05,0,-0.2,#e69f00,#e69f00,,-0.2,0,#cc79a7,#0072b2,,-0.1,0.2,#f0e442,#f0e442,,0.1,0.2,#4A4A4A,#4A4A4A,,-0.1,-0.1,#56b4e9,#56b4e9,,A3ASK7MW6P4RZQ,001,2020-12-12_20h36.16.000,change-localization,2020.1.2,Win32,60,,,0,48,48,48,1,,
,,-0.09537037,-0.003703704,1,0,0,2.216675,probe4,"[-0.1,0]",,,,,,50,probe4,0.05,0.05,0.2,0.1,#0072b2,#0072b2,,0.1,0.1,#cc79a7,#cc79a7,,0.1,-0.2,#56b4e9,#56b4e9,,-0.1,0,#009e73,#e69f00,,0,0.1,#d55e00,#d55e00,,A3ASK7MW6P4RZQ,001,2020-12-12_20h36.16.000,change-localization,2020.1.2,Win32,60,,,0,49,49,49,1,,
,,,,,,,,,,,,,,,,,,,,,,,,,,,,,,,,,,,,,,,,,,,,A3ASK7MW6P4RZQ,001,2020-12-12_20h36.16.000,change-localization,2020.1.2,Win32,60,,,,,,,,c,18.73392
