key_resp.keys,key_resp.rt,mouse.x,mouse.y,mouse.leftButton,mouse.midButton,mouse.rightButton,mouse.time,mouse.clicked_name,mouse.clicked_pos,training.thisRepN,training.thisTrialN,training.thisN,training.thisIndex,training.ran,trial,answer,height,width,x1,y1,stim_color1,probe_color1,copy_color1,x2,y2,stim_color2,probe_color2,copy_color2,x3,y3,stim_color3,probe_color3,copy_color3,x4,y4,stim_color4,probe_color4,copy_color4,x5,y5,stim_color5,probe_color5,copy_color5,participant,session,date,expName,psychopyVersion,OS,frameRate,key_resp_2.keys,key_resp_2.rt,trials.thisRepN,trials.thisTrialN,trials.thisN,trials.thisIndex,trials.ran,completion_keys.keys,completion_keys.rt
c,29.346185,0.198148148,-0.005555556,1,0,0,2.168265,probe5,"[0.2,0]",0,0,0,0,1,1,probe4,0.05,0.05,0.1,0.2,#0072b2,#0072b2,#0072b2,0.1,-0.1,#e69f00,#e69f00,#e69f00,-0.1,-0.2,#cc79a7,#cc79a7,#cc79a7,0.2,-0.1,#4A4A4A,#f0e442,#FFFFFF,0.2,0,#009e73,#009e73,#009e73,A3GNQDFPZALU92,001,2020-12-12_16h26.24.478,change-localization,2020.1.2,Win32,60,,,,,,,,,
,,0.200925926,-0.090740741,1,0,0,1.501165,probe2,"[0.2,-0.1]",0,1,1,1,1,2,probe1,0.05,0.05,0.2,0,#d55e00,#009e73,#FFFFFF,0.2,-0.1,#e69f00,#e69f00,#e69f00,0.1,0,#4A4A4A,#4A4A4A,#4A4A4A,-0.1,0.1,#56b4e9,#56b4e9,#56b4e9,-0.1,0,#cc79a7,#cc79a7,#cc79a7,A3GNQDFPZALU92,001,2020-12-12_16h26.24.478,change-localization,2020.1.2,Win32,60,,,,,,,,,
,,-0.198148148,-0.013888889,1,0,0,1.53419,probe3,"[-0.2,0]",0,2,2,2,1,3,probe1,0.05,0.05,-0.2,-0.2,#f0e442,#009e73,#FFFFFF,0.2,-0.1,#d55e00,#d55e00,#d55e00,-0.2,0,#4A4A4A,#4A4A4A,#4A4A4A,-0.1,-0.1,#0072b2,#0072b2,#0072b2,0,-0.1,#56b4e9,#56b4e9,#56b4e9,A3GNQDFPZALU92,001,2020-12-12_16h26.24.478,change-localization,2020.1.2,Win32,60,,,,,,,,,
,,0.191666667,-0.193518519,1,0,0,1.267365,probe3,"[0.2,-0.2]",0,3,3,3,1,4,probe1,0.05,0.05,0.2,0.2,#d55e00,#56b4e9,#FFFFFF,-0.2,0.2,#f0e442,#f0e442,#f0e442,0.2,-0.2,#0072b2,#0072b2,#0072b2,-0.2,0,#cc79a7,#cc79a7,#cc79a7,-0.2,0.1,#4A4A4A,#4A4A4A,#4A4A4A,A3GNQDFPZALU92,001,2020-12-12_16h26.24.478,change-localization,2020.1.2,Win32,60,,,,,,,,,
,,-0.001851852,0.113888889,1,0,0,2.363435,probe3,"[0,0.1]",0,4,4,4,1,5,probe3,0.05,0.05,-0.2,0.1,#56b4e9,#56b4e9,#56b4e9,0,0.2,#009e73,#009e73,#009e73,0,0.1,#0072b2,#cc79a7,#FFFFFF,-0.1,-0.1,#4A4A4A,#4A4A4A,#4A4A4A,0.2,0,#f0e442,#f0e442,#f0e442,A3GNQDFPZALU92,001,2020-12-12_16h26.24.478,change-localization,2020.1.2,Win32,60,,,,,,,,,
,,-0.023148148,-0.194444444,1,0,0,2.006245,probe4,"[0,-0.2]",0,5,5,5,1,6,probe5,0.05,0.05,-0.1,0.1,#f0e442,#f0e442,#f0e442,0,0.1,#009e73,#009e73,#009e73,-0.2,0,#4A4A4A,#4A4A4A,#4A4A4A,0,-0.2,#d55e00,#d55e00,#d55e00,0.1,0,#cc79a7,#0072b2,#FFFFFF,A3GNQDFPZALU92,001,2020-12-12_16h26.24.478,change-localization,2020.1.2,Win32,60,,,,,,,,,
,,0.105555556,0.192592593,1,0,0,1.867625,probe2,"[0.1,0.2]",0,6,6,6,1,7,probe2,0.05,0.05,-0.2,-0.2,#4A4A4A,#4A4A4A,#4A4A4A,0.1,0.2,#0072b2,#d55e00,#FFFFFF,-0.1,-0.2,#f0e442,#f0e442,#f0e442,-0.2,0.2,#009e73,#009e73,#009e73,0.2,0.2,#e69f00,#e69f00,#e69f00,A3GNQDFPZALU92,001,2020-12-12_16h26.24.478,change-localization,2020.1.2,Win32,60,,,,,,,,,
,,0.090740741,-0.196296296,1,0,0,1.28405,probe1,"[0.1,-0.2]",0,7,7,7,1,8,probe1,0.05,0.05,0.1,-0.2,#009e73,#f0e442,#FFFFFF,-0.1,0,#d55e00,#d55e00,#d55e00,-0.1,0.1,#4A4A4A,#4A4A4A,#4A4A4A,-0.2,0,#cc79a7,#cc79a7,#cc79a7,0.2,0,#e69f00,#e69f00,#e69f00,A3GNQDFPZALU92,001,2020-12-12_16h26.24.478,change-localization,2020.1.2,Win32,60,,,,,,,,,
,,0.099074074,-0.196296296,1,0,0,1.450745,probe1,"[0.1,-0.2]",0,8,8,8,1,9,probe1,0.05,0.05,0.1,-0.2,#0072b2,#e69f00,#FFFFFF,-0.1,0.2,#f0e442,#f0e442,#f0e442,-0.2,0.1,#d55e00,#d55e00,#d55e00,0.2,0.2,#cc79a7,#cc79a7,#cc79a7,0.1,0.1,#56b4e9,#56b4e9,#56b4e9,A3GNQDFPZALU92,001,2020-12-12_16h26.24.478,change-localization,2020.1.2,Win32,60,,,,,,,,,
,,-0.002777778,0.203703704,1,0,0,1.79924,probe2,"[0,0.2]",0,9,9,9,1,10,probe1,0.05,0.05,-0.1,-0.1,#4A4A4A,#f0e442,#FFFFFF,0,0.2,#cc79a7,#cc79a7,#cc79a7,0.2,-0.2,#e69f00,#e69f00,#e69f00,0.1,-0.2,#009e73,#009e73,#009e73,0.1,0.1,#d55e00,#d55e00,#d55e00,A3GNQDFPZALU92,001,2020-12-12_16h26.24.478,change-localization,2020.1.2,Win32,60,,,,,,,,,
,,-0.09537037,0.201851852,1,0,0,1.58566,probe2,"[-0.1,0.2]",,,,,,1,probe2,0.05,0.05,-0.2,0.2,#009e73,#009e73,,-0.1,0.2,#f0e442,#e69f00,,-0.1,0,#0072b2,#0072b2,,0,-0.2,#cc79a7,#cc79a7,,0,0.2,#d55e00,#d55e00,,A3GNQDFPZALU92,001,2020-12-12_16h26.24.478,change-localization,2020.1.2,Win32,60,c,4.614555,0,0,0,0,1,,
,,-0.02037037,-0.081481481,1,0,0,0.967085,probe5,"[0,-0.1]",,,,,,2,probe5,0.05,0.05,0,0.1,#009e73,#009e73,,0.2,0.1,#4A4A4A,#4A4A4A,,-0.1,-0.1,#cc79a7,#cc79a7,,0.1,0.1,#d55e00,#d55e00,,0,-0.1,#56b4e9,#e69f00,,A3GNQDFPZALU92,001,2020-12-12_16h26.24.478,change-localization,2020.1.2,Win32,60,,,0,1,1,1,1,,
,,-0.091666667,0.097222222,1,0,0,1.40841,probe4,"[-0.1,0.1]",,,,,,3,probe4,0.05,0.05,0.1,-0.1,#56b4e9,#56b4e9,,0.2,0,#f0e442,#f0e442,,0.2,-0.1,#e69f00,#e69f00,,-0.1,0.1,#4A4A4A,#009e73,,-0.1,0.2,#d55e00,#d55e00,,A3GNQDFPZALU92,001,2020-12-12_16h26.24.478,change-localization,2020.1.2,Win32,60,,,0,2,2,2,1,,
,,0.182407407,-0.20462963,1,0,0,1.30415,probe4,"[0.2,-0.2]",,,,,,4,probe5,0.05,0.05,0.2,0,#56b4e9,#56b4e9,,-0.2,-0.2,#cc79a7,#cc79a7,,0,0.2,#4A4A4A,#4A4A4A,,0.2,-0.2,#e69f00,#e69f00,,-0.2,0,#f0e442,#009e73,,A3GNQDFPZALU92,001,2020-12-12_16h26.24.478,change-localization,2020.1.2,Win32,60,,,0,3,3,3,1,,
,,-0.101851852,-0.096296296,1,0,0,1.17262,probe3,"[-0.1,-0.1]",,,,,,5,probe3,0.05,0.05,-0.2,0.1,#4A4A4A,#4A4A4A,,0.2,0.2,#009e73,#009e73,,-0.1,-0.1,#0072b2,#f0e442,,0.2,0,#cc79a7,#cc79a7,,0.1,0.1,#e69f00,#e69f00,,A3GNQDFPZALU92,001,2020-12-12_16h26.24.478,change-localization,2020.1.2,Win32,60,,,0,4,4,4,1,,
,,-0.003703704,0.2,1,0,0,1.818985,probe4,"[0,0.2]",,,,,,6,probe4,0.05,0.05,-0.1,0.1,#d55e00,#d55e00,,-0.2,0.2,#0072b2,#0072b2,,0,-0.1,#e69f00,#e69f00,,0,0.2,#56b4e9,#4A4A4A,,-0.2,-0.2,#009e73,#009e73,,A3GNQDFPZALU92,001,2020-12-12_16h26.24.478,change-localization,2020.1.2,Win32,60,,,0,5,5,5,1,,
,,-0.208333333,0.2,1,0,0,1.539465,probe3,"[-0.2,0.2]",,,,,,7,probe4,0.05,0.05,0.2,-0.1,#56b4e9,#56b4e9,,-0.1,-0.1,#e69f00,#e69f00,,-0.2,0.2,#009e73,#009e73,,0.2,0.2,#cc79a7,#4A4A4A,,0.2,-0.2,#d55e00,#d55e00,,A3GNQDFPZALU92,001,2020-12-12_16h26.24.478,change-localization,2020.1.2,Win32,60,,,0,6,6,6,1,,
,,0.093518519,0.20462963,1,0,0,1.63959,probe2,"[0.1,0.2]",,,,,,8,probe4,0.05,0.05,-0.2,0.1,#e69f00,#e69f00,,0.1,0.2,#cc79a7,#cc79a7,,0.2,0.1,#4A4A4A,#4A4A4A,,-0.2,0.2,#56b4e9,#d55e00,,0.2,-0.1,#0072b2,#0072b2,,A3GNQDFPZALU92,001,2020-12-12_16h26.24.478,change-localization,2020.1.2,Win32,60,,,0,7,7,7,1,,
,,0.201851852,0.202777778,1,0,0,1.371965,probe5,"[0.2,0.2]",,,,,,9,probe5,0.05,0.05,-0.1,0,#4A4A4A,#4A4A4A,,0.1,0.1,#56b4e9,#56b4e9,,-0.2,0.1,#009e73,#009e73,,0.2,0.1,#cc79a7,#cc79a7,,0.2,0.2,#d55e00,#f0e442,,A3GNQDFPZALU92,001,2020-12-12_16h26.24.478,change-localization,2020.1.2,Win32,60,,,0,8,8,8,1,,
,,-0.193518519,0.098148148,1,0,0,1.48528,probe4,"[-0.2,0.1]",,,,,,10,probe3,0.05,0.05,0.2,0.2,#f0e442,#f0e442,,0.1,-0.1,#e69f00,#e69f00,,0,0.1,#cc79a7,#4A4A4A,,-0.2,0.1,#56b4e9,#56b4e9,,0.2,0,#0072b2,#0072b2,,A3GNQDFPZALU92,001,2020-12-12_16h26.24.478,change-localization,2020.1.2,Win32,60,,,0,9,9,9,1,,
,,0.090740741,-0.178703704,1,0,0,1.785665,probe5,"[0.1,-0.2]",,,,,,11,probe5,0.05,0.05,0.2,0.2,#4A4A4A,#4A4A4A,,0.1,0.2,#0072b2,#0072b2,,0.1,-0.1,#cc79a7,#cc79a7,,0,-0.2,#009e73,#009e73,,0.1,-0.2,#f0e442,#d55e00,,A3GNQDFPZALU92,001,2020-12-12_16h26.24.478,change-localization,2020.1.2,Win32,60,,,0,10,10,10,1,,
,,0.103703704,0.013888889,1,0,0,1.418905,probe4,"[0.1,0]",,,,,,12,probe4,0.05,0.05,-0.1,-0.1,#009e73,#009e73,,-0.1,0,#56b4e9,#56b4e9,,-0.1,-0.2,#0072b2,#0072b2,,0.1,0,#d55e00,#f0e442,,0,-0.1,#cc79a7,#cc79a7,,A3GNQDFPZALU92,001,2020-12-12_16h26.24.478,change-localization,2020.1.2,Win32,60,,,0,11,11,11,1,,
,,-0.187037037,0.19537037,1,0,0,1.445725,probe4,"[-0.2,0.2]",,,,,,13,probe4,0.05,0.05,0,-0.1,#f0e442,#f0e442,,0.1,-0.1,#d55e00,#d55e00,,0.1,0.1,#0072b2,#0072b2,,-0.2,0.2,#cc79a7,#4A4A4A,,0.1,0.2,#009e73,#009e73,,A3GNQDFPZALU92,001,2020-12-12_16h26.24.478,change-localization,2020.1.2,Win32,60,,,0,12,12,12,1,,
,,0.097222222,0.092592593,1,0,0,1.43412,probe4,"[0.1,0.1]",,,,,,14,probe5,0.05,0.05,0,0.2,#cc79a7,#cc79a7,,0,-0.1,#4A4A4A,#4A4A4A,,-0.2,0,#56b4e9,#56b4e9,,0.1,0.1,#0072b2,#0072b2,,0.1,0.2,#009e73,#e69f00,,A3GNQDFPZALU92,001,2020-12-12_16h26.24.478,change-localization,2020.1.2,Win32,60,,,0,13,13,13,1,,
,,0.174074074,0.214814815,1,0,0,1.02953,probe1,"[0.2,0.2]",,,,,,15,probe3,0.05,0.05,0.2,0.2,#cc79a7,#cc79a7,,0,0.2,#56b4e9,#56b4e9,,0.2,0.1,#d55e00,#4A4A4A,,0.1,-0.1,#f0e442,#f0e442,,0.2,-0.1,#0072b2,#0072b2,,A3GNQDFPZALU92,001,2020-12-12_16h26.24.478,change-localization,2020.1.2,Win32,60,,,0,14,14,14,1,,
,,-0.190740741,0.206481481,1,0,0,2.151045,probe2,"[-0.2,0.2]",,,,,,16,probe3,0.05,0.05,-0.2,-0.1,#f0e442,#f0e442,,-0.2,0.2,#d55e00,#d55e00,,0.1,0.1,#009e73,#4A4A4A,,-0.2,0.1,#56b4e9,#56b4e9,,0,-0.1,#cc79a7,#cc79a7,,A3GNQDFPZALU92,001,2020-12-12_16h26.24.478,change-localization,2020.1.2,Win32,60,,,0,15,15,15,1,,
,,-0.012037037,0.115740741,1,0,0,1.4341,probe3,"[0,0.1]",,,,,,17,probe3,0.05,0.05,0.2,-0.1,#cc79a7,#cc79a7,,0,-0.2,#0072b2,#0072b2,,0,0.1,#4A4A4A,#e69f00,,-0.2,-0.1,#f0e442,#f0e442,,-0.1,-0.1,#009e73,#009e73,,A3GNQDFPZALU92,001,2020-12-12_16h26.24.478,change-localization,2020.1.2,Win32,60,,,0,16,16,16,1,,
,,0.096296296,-0.089814815,1,0,0,1.41737,probe4,"[0.1,-0.1]",,,,,,18,probe3,0.05,0.05,-0.1,0.1,#d55e00,#d55e00,,-0.1,0.2,#e69f00,#e69f00,,0.2,0,#009e73,#0072b2,,0.1,-0.1,#cc79a7,#cc79a7,,-0.2,0.2,#4A4A4A,#4A4A4A,,A3GNQDFPZALU92,001,2020-12-12_16h26.24.478,change-localization,2020.1.2,Win32,60,,,0,17,17,17,1,,
,,-0.10462963,0.1,1,0,0,1.434885,probe3,"[-0.1,0.1]",,,,,,19,probe3,0.05,0.05,-0.1,0.2,#0072b2,#0072b2,,0,-0.1,#4A4A4A,#4A4A4A,,-0.1,0.1,#e69f00,#009e73,,0.2,0.1,#d55e00,#d55e00,,-0.2,0.1,#cc79a7,#cc79a7,,A3GNQDFPZALU92,001,2020-12-12_16h26.24.478,change-localization,2020.1.2,Win32,60,,,0,18,18,18,1,,
,,0.002777778,-0.086111111,1,0,0,1.133835,probe4,"[0,-0.1]",,,,,,20,probe4,0.05,0.05,0.2,0,#56b4e9,#56b4e9,,-0.1,0.2,#009e73,#009e73,,-0.2,-0.2,#e69f00,#e69f00,,0,-0.1,#f0e442,#cc79a7,,-0.1,0,#4A4A4A,#4A4A4A,,A3GNQDFPZALU92,001,2020-12-12_16h26.24.478,change-localization,2020.1.2,Win32,60,,,0,19,19,19,1,,
,,0.187962963,0.099074074,1,0,0,1.69872,probe5,"[0.2,0.1]",,,,,,21,probe3,0.05,0.05,-0.1,0.1,#0072b2,#0072b2,,-0.1,0.2,#009e73,#009e73,,0.2,0,#56b4e9,#4A4A4A,,-0.2,0.2,#f0e442,#f0e442,,0.2,0.1,#d55e00,#d55e00,,A3GNQDFPZALU92,001,2020-12-12_16h26.24.478,change-localization,2020.1.2,Win32,60,,,0,20,20,20,1,,
,,0.2,-0.100925926,1,0,0,1.284105,probe1,"[0.2,-0.1]",,,,,,22,probe4,0.05,0.05,0.2,-0.1,#d55e00,#d55e00,,0.2,0,#56b4e9,#56b4e9,,0.1,-0.2,#cc79a7,#cc79a7,,-0.2,-0.1,#4A4A4A,#009e73,,0,-0.2,#e69f00,#e69f00,,A3GNQDFPZALU92,001,2020-12-12_16h26.24.478,change-localization,2020.1.2,Win32,60,,,0,21,21,21,1,,
,,-0.189814815,-0.191666667,1,0,0,1.35066,probe4,"[-0.2,-0.2]",,,,,,23,probe4,0.05,0.05,0.1,0.1,#56b4e9,#56b4e9,,-0.2,-0.1,#0072b2,#0072b2,,0.2,0,#d55e00,#d55e00,,-0.2,-0.2,#cc79a7,#009e73,,0.1,-0.2,#4A4A4A,#4A4A4A,,A3GNQDFPZALU92,001,2020-12-12_16h26.24.478,change-localization,2020.1.2,Win32,60,,,0,22,22,22,1,,
,,0.112962963,0.094444444,1,0,0,1.967635,probe4,"[0.1,0.1]",,,,,,24,probe2,0.05,0.05,-0.1,-0.2,#4A4A4A,#4A4A4A,,0.2,0.2,#d55e00,#e69f00,,0.1,-0.1,#f0e442,#f0e442,,0.1,0.1,#56b4e9,#56b4e9,,-0.2,0.1,#cc79a7,#cc79a7,,A3GNQDFPZALU92,001,2020-12-12_16h26.24.478,change-localization,2020.1.2,Win32,60,,,0,23,23,23,1,,
,,-0.198148148,-0.184259259,1,0,0,1.21746,probe1,"[-0.2,-0.2]",,,,,,25,probe3,0.05,0.05,-0.2,-0.2,#f0e442,#f0e442,,-0.1,-0.1,#4A4A4A,#4A4A4A,,0.2,0,#d55e00,#cc79a7,,0,0.2,#0072b2,#0072b2,,-0.2,0.1,#009e73,#009e73,,A3GNQDFPZALU92,001,2020-12-12_16h26.24.478,change-localization,2020.1.2,Win32,60,,,0,24,24,24,1,,
,,-0.107407407,-0.188888889,1,0,0,1.14015,probe3,"[-0.1,-0.2]",,,,,,26,probe3,0.05,0.05,0.1,-0.1,#e69f00,#e69f00,,-0.2,0,#56b4e9,#56b4e9,,-0.1,-0.2,#009e73,#d55e00,,-0.2,-0.1,#4A4A4A,#4A4A4A,,0.1,0,#cc79a7,#cc79a7,,A3GNQDFPZALU92,001,2020-12-12_16h26.24.478,change-localization,2020.1.2,Win32,60,,,0,25,25,25,1,,
,,0.213888889,-0.001851852,1,0,0,0.95198,probe2,"[0.2,0]",,,,,,27,probe5,0.05,0.05,-0.1,-0.2,#009e73,#009e73,,0.2,0,#cc79a7,#cc79a7,,-0.1,-0.1,#e69f00,#e69f00,,0.1,0.1,#d55e00,#d55e00,,-0.2,-0.1,#4A4A4A,#0072b2,,A3GNQDFPZALU92,001,2020-12-12_16h26.24.478,change-localization,2020.1.2,Win32,60,,,0,26,26,26,1,,
,,-0.182407407,0.099074074,1,0,0,1.489045,probe2,"[-0.2,0.1]",,,,,,28,probe5,0.05,0.05,-0.1,0.2,#009e73,#009e73,,-0.2,0.1,#56b4e9,#56b4e9,,0,-0.2,#d55e00,#d55e00,,0.1,0,#0072b2,#0072b2,,0.1,0.1,#f0e442,#e69f00,,A3GNQDFPZALU92,001,2020-12-12_16h26.24.478,change-localization,2020.1.2,Win32,60,,,0,27,27,27,1,,
,,0.105555556,0.205555556,1,0,0,1.566955,probe4,"[0.1,0.2]",,,,,,29,probe1,0.05,0.05,0.1,-0.1,#4A4A4A,#56b4e9,,-0.2,0.2,#e69f00,#e69f00,,-0.1,-0.1,#f0e442,#f0e442,,0.1,0.2,#0072b2,#0072b2,,-0.1,-0.2,#cc79a7,#cc79a7,,A3GNQDFPZALU92,001,2020-12-12_16h26.24.478,change-localization,2020.1.2,Win32,60,,,0,28,28,28,1,,
,,-0.121296296,-0.206481481,1,0,0,0.95454,probe2,"[-0.1,-0.2]",,,,,,30,probe2,0.05,0.05,0.1,0.2,#f0e442,#f0e442,,-0.1,-0.2,#d55e00,#4A4A4A,,0,-0.2,#cc79a7,#cc79a7,,0.1,-0.2,#0072b2,#0072b2,,-0.2,0,#009e73,#009e73,,A3GNQDFPZALU92,001,2020-12-12_16h26.24.478,change-localization,2020.1.2,Win32,60,,,0,29,29,29,1,,
,,0.094444444,0.012037037,1,0,0,1.089615,probe2,"[0.1,0]",,,,,,31,probe5,0.05,0.05,0,-0.2,#d55e00,#d55e00,,0.1,0,#e69f00,#e69f00,,0.1,0.2,#f0e442,#f0e442,,-0.2,-0.1,#cc79a7,#cc79a7,,-0.1,-0.1,#009e73,#4A4A4A,,A3GNQDFPZALU92,001,2020-12-12_16h26.24.478,change-localization,2020.1.2,Win32,60,,,0,30,30,30,1,,
,,-0.190740741,0.106481481,1,0,0,1.435895,probe4,"[-0.2,0.1]",,,,,,32,probe3,0.05,0.05,0.2,0.2,#56b4e9,#56b4e9,,-0.1,-0.1,#009e73,#009e73,,0.2,0.1,#cc79a7,#0072b2,,-0.2,0.1,#4A4A4A,#4A4A4A,,-0.2,-0.1,#f0e442,#f0e442,,A3GNQDFPZALU92,001,2020-12-12_16h26.24.478,change-localization,2020.1.2,Win32,60,,,0,31,31,31,1,,
,,0.083333333,0.196296296,1,0,0,1.03508,probe5,"[0.1,0.2]",,,,,,33,probe3,0.05,0.05,-0.1,-0.1,#0072b2,#0072b2,,0.1,0.1,#cc79a7,#cc79a7,,-0.1,0.1,#f0e442,#009e73,,0,-0.2,#56b4e9,#56b4e9,,0.1,0.2,#e69f00,#e69f00,,A3GNQDFPZALU92,001,2020-12-12_16h26.24.478,change-localization,2020.1.2,Win32,60,,,0,32,32,32,1,,
,,-0.191666667,0.006481481,1,0,0,1.53846,probe5,"[-0.2,0]",,,,,,34,probe5,0.05,0.05,0.2,0.1,#e69f00,#e69f00,,-0.2,0.1,#cc79a7,#cc79a7,,0.1,-0.2,#0072b2,#0072b2,,0.2,-0.2,#d55e00,#d55e00,,-0.2,0,#56b4e9,#009e73,,A3GNQDFPZALU92,001,2020-12-12_16h26.24.478,change-localization,2020.1.2,Win32,60,,,0,33,33,33,1,,
,,0.003703704,0.200925926,1,0,0,2.390245,probe4,"[0,0.2]",,,,,,35,probe2,0.05,0.05,0.2,0,#56b4e9,#56b4e9,,0.2,-0.1,#e69f00,#009e73,,0.1,-0.1,#f0e442,#f0e442,,0,0.2,#d55e00,#d55e00,,0.1,0.2,#cc79a7,#cc79a7,,A3GNQDFPZALU92,001,2020-12-12_16h26.24.478,change-localization,2020.1.2,Win32,60,,,0,34,34,34,1,,
,,-0.208333333,-0.106481481,1,0,0,2.17415,probe3,"[-0.2,-0.1]",,,,,,36,probe3,0.05,0.05,0,0.1,#4A4A4A,#4A4A4A,,0.2,0.1,#009e73,#009e73,,-0.2,-0.1,#f0e442,#56b4e9,,-0.1,-0.1,#e69f00,#e69f00,,0.1,0,#0072b2,#0072b2,,A3GNQDFPZALU92,001,2020-12-12_16h26.24.478,change-localization,2020.1.2,Win32,60,,,0,35,35,35,1,,
,,0.106481481,0.007407407,1,0,0,0.88788,probe5,"[0.1,0]",,,,,,37,probe5,0.05,0.05,-0.2,0.1,#e69f00,#e69f00,,0.1,0.1,#0072b2,#0072b2,,-0.2,0,#d55e00,#d55e00,,-0.1,0.2,#cc79a7,#cc79a7,,0.1,0,#009e73,#f0e442,,A3GNQDFPZALU92,001,2020-12-12_16h26.24.478,change-localization,2020.1.2,Win32,60,,,0,36,36,36,1,,
,,0.069444444,0.00462963,1,0,0,1.323795,probe4,"[0.1,0]",,,,,,38,probe4,0.05,0.05,0.2,-0.2,#4A4A4A,#4A4A4A,,0.2,0,#0072b2,#0072b2,,0.1,-0.1,#e69f00,#e69f00,,0.1,0,#d55e00,#cc79a7,,0,-0.1,#009e73,#009e73,,A3GNQDFPZALU92,001,2020-12-12_16h26.24.478,change-localization,2020.1.2,Win32,60,,,0,37,37,37,1,,
,,0.196296296,0.099074074,1,0,0,1.58578,probe3,"[0.2,0.1]",,,,,,39,probe4,0.05,0.05,0.1,-0.1,#e69f00,#e69f00,,-0.2,-0.1,#cc79a7,#cc79a7,,0.2,0.1,#d55e00,#d55e00,,-0.2,0.2,#56b4e9,#f0e442,,0,-0.1,#0072b2,#0072b2,,A3GNQDFPZALU92,001,2020-12-12_16h26.24.478,change-localization,2020.1.2,Win32,60,,,0,38,38,38,1,,
,,-0.080555556,-0.112037037,1,0,0,4.38728,probe3,"[-0.1,-0.1]",,,,,,40,probe1,0.05,0.05,-0.2,0.1,#4A4A4A,#d55e00,,0.2,0.2,#009e73,#009e73,,-0.1,-0.1,#cc79a7,#cc79a7,,0.2,-0.2,#e69f00,#e69f00,,0.1,-0.1,#56b4e9,#56b4e9,,A3GNQDFPZALU92,001,2020-12-12_16h26.24.478,change-localization,2020.1.2,Win32,60,,,0,39,39,39,1,,
,,-0.198148148,-0.197222222,1,0,0,2.27164,probe3,"[-0.2,-0.2]",,,,,,41,probe4,0.05,0.05,0.2,0.1,#009e73,#009e73,,-0.2,-0.1,#0072b2,#0072b2,,-0.2,-0.2,#56b4e9,#56b4e9,,-0.1,0,#f0e442,#cc79a7,,0,-0.2,#d55e00,#d55e00,,A3GNQDFPZALU92,001,2020-12-12_16h26.24.478,change-localization,2020.1.2,Win32,60,,,0,40,40,40,1,,
,,-0.102777778,-0.198148148,1,0,0,1.45152,probe1,"[-0.1,-0.2]",,,,,,42,probe4,0.05,0.05,-0.1,-0.2,#009e73,#009e73,,-0.1,0.1,#cc79a7,#cc79a7,,0.1,0.1,#56b4e9,#56b4e9,,0,-0.2,#e69f00,#d55e00,,-0.1,0,#0072b2,#0072b2,,A3GNQDFPZALU92,001,2020-12-12_16h26.24.478,change-localization,2020.1.2,Win32,60,,,0,41,41,41,1,,
,,0.090740741,-0.005555556,1,0,0,1.581965,probe2,"[0.1,0]",,,,,,43,probe1,0.05,0.05,0.2,-0.1,#e69f00,#009e73,,0.1,0,#cc79a7,#cc79a7,,-0.2,-0.2,#f0e442,#f0e442,,0.2,-0.2,#56b4e9,#56b4e9,,-0.2,0.1,#4A4A4A,#4A4A4A,,A3GNQDFPZALU92,001,2020-12-12_16h26.24.478,change-localization,2020.1.2,Win32,60,,,0,42,42,42,1,,
,,0.09537037,0.012037037,1,0,0,1.34991,probe3,"[0.1,0]",,,,,,44,probe1,0.05,0.05,-0.1,0.2,#56b4e9,#e69f00,,0.2,0.1,#4A4A4A,#4A4A4A,,0.1,0,#cc79a7,#cc79a7,,0.1,0.2,#f0e442,#f0e442,,-0.1,-0.1,#d55e00,#d55e00,,A3GNQDFPZALU92,001,2020-12-12_16h26.24.478,change-localization,2020.1.2,Win32,60,,,0,43,43,43,1,,
,,-0.1,0.1,1,0,0,1.33934,probe3,"[-0.1,0.1]",,,,,,45,probe3,0.05,0.05,-0.2,0.2,#0072b2,#0072b2,,-0.2,-0.1,#56b4e9,#56b4e9,,-0.1,0.1,#f0e442,#e69f00,,-0.1,0.2,#d55e00,#d55e00,,0,-0.2,#cc79a7,#cc79a7,,A3GNQDFPZALU92,001,2020-12-12_16h26.24.478,change-localization,2020.1.2,Win32,60,,,0,44,44,44,1,,
,,0.194444444,-0.191666667,1,0,0,2.21946,probe3,"[0.2,-0.2]",,,,,,46,probe5,0.05,0.05,0.2,0.1,#0072b2,#0072b2,,0.1,0.2,#f0e442,#f0e442,,0.2,-0.2,#009e73,#009e73,,0.2,0.2,#4A4A4A,#4A4A4A,,0.2,0,#cc79a7,#e69f00,,A3GNQDFPZALU92,001,2020-12-12_16h26.24.478,change-localization,2020.1.2,Win32,60,,,0,45,45,45,1,,
,,0.187037037,0.203703704,1,0,0,1.506495,probe3,"[0.2,0.2]",,,,,,47,probe3,0.05,0.05,0,-0.1,#009e73,#009e73,,-0.2,0.2,#f0e442,#f0e442,,0.2,0.2,#56b4e9,#cc79a7,,-0.1,0.2,#4A4A4A,#4A4A4A,,-0.1,0.1,#e69f00,#e69f00,,A3GNQDFPZALU92,001,2020-12-12_16h26.24.478,change-localization,2020.1.2,Win32,60,,,0,46,46,46,1,,
,,-0.209259259,-0.093518519,1,0,0,1.118975,probe4,"[-0.2,-0.1]",,,,,,48,probe4,0.05,0.05,0.2,-0.2,#cc79a7,#cc79a7,,-0.1,0.1,#009e73,#009e73,,0.1,-0.2,#f0e442,#f0e442,,-0.2,-0.1,#d55e00,#0072b2,,-0.1,0,#56b4e9,#56b4e9,,A3GNQDFPZALU92,001,2020-12-12_16h26.24.478,change-localization,2020.1.2,Win32,60,,,0,47,47,47,1,,
,,-0.191666667,0.002777778,1,0,0,2.06619,probe2,"[-0.2,0]",,,,,,49,probe2,0.05,0.05,0,-0.2,#e69f00,#e69f00,,-0.2,0,#cc79a7,#0072b2,,-0.1,0.2,#f0e442,#f0e442,,0.1,0.2,#4A4A4A,#4A4A4A,,-0.1,-0.1,#56b4e9,#56b4e9,,A3GNQDFPZALU92,001,2020-12-12_16h26.24.478,change-localization,2020.1.2,Win32,60,,,0,48,48,48,1,,
,,-0.085185185,0.009259259,1,0,0,0.78377,probe4,"[-0.1,0]",,,,,,50,probe4,0.05,0.05,0.2,0.1,#0072b2,#0072b2,,0.1,0.1,#cc79a7,#cc79a7,,0.1,-0.2,#56b4e9,#56b4e9,,-0.1,0,#009e73,#e69f00,,0,0.1,#d55e00,#d55e00,,A3GNQDFPZALU92,001,2020-12-12_16h26.24.478,change-localization,2020.1.2,Win32,60,,,0,49,49,49,1,,
,,,,,,,,,,,,,,,,,,,,,,,,,,,,,,,,,,,,,,,,,,,,A3GNQDFPZALU92,001,2020-12-12_16h26.24.478,change-localization,2020.1.2,Win32,60,,,,,,,,c,5.097
