key_resp.keys,key_resp.rt,mouse.x,mouse.y,mouse.leftButton,mouse.midButton,mouse.rightButton,mouse.time,mouse.clicked_name,mouse.clicked_pos,training.thisRepN,training.thisTrialN,training.thisN,training.thisIndex,training.ran,trial,answer,height,width,x1,y1,stim_color1,probe_color1,copy_color1,x2,y2,stim_color2,probe_color2,copy_color2,x3,y3,stim_color3,probe_color3,copy_color3,x4,y4,stim_color4,probe_color4,copy_color4,x5,y5,stim_color5,probe_color5,copy_color5,participant,session,date,expName,psychopyVersion,OS,frameRate,key_resp_2.keys,key_resp_2.rt,trials.thisRepN,trials.thisTrialN,trials.thisN,trials.thisIndex,trials.ran,completion_keys.keys,completion_keys.rt
c,0.802865,0.216145833,-0.106770833,1,0,0,1.121745,probe4,"[0.2,-0.1]",0,0,0,0,1,1,probe4,0.05,0.05,0.1,0.2,#0072b2,#0072b2,#0072b2,0.1,-0.1,#e69f00,#e69f00,#e69f00,-0.1,-0.2,#cc79a7,#cc79a7,#cc79a7,0.2,-0.1,#4A4A4A,#f0e442,#FFFFFF,0.2,0,#009e73,#009e73,#009e73,A3NYIJYBHAJ74V,001,2020-12-11_17h54.13.128,change-localization,2020.1.2,Win32,60,,,,,,,,,
,,0.216145833,-0.106770833,1,0,0,0.970825,probe2,"[0.2,-0.1]",0,1,1,1,1,2,probe1,0.05,0.05,0.2,0,#d55e00,#009e73,#FFFFFF,0.2,-0.1,#e69f00,#e69f00,#e69f00,0.1,0,#4A4A4A,#4A4A4A,#4A4A4A,-0.1,0.1,#56b4e9,#56b4e9,#56b4e9,-0.1,0,#cc79a7,#cc79a7,#cc79a7,A3NYIJYBHAJ74V,001,2020-12-11_17h54.13.128,change-localization,2020.1.2,Win32,60,,,,,,,,,
,,-0.07421875,-0.09375,1,0,0,2.443555,probe4,"[-0.1,-0.1]",0,2,2,2,1,3,probe1,0.05,0.05,-0.2,-0.2,#f0e442,#009e73,#FFFFFF,0.2,-0.1,#d55e00,#d55e00,#d55e00,-0.2,0,#4A4A4A,#4A4A4A,#4A4A4A,-0.1,-0.1,#0072b2,#0072b2,#0072b2,0,-0.1,#56b4e9,#56b4e9,#56b4e9,A3NYIJYBHAJ74V,001,2020-12-11_17h54.13.128,change-localization,2020.1.2,Win32,60,,,,,,,,,
,,0.19140625,0.20703125,1,0,0,1.0593,probe1,"[0.2,0.2]",0,3,3,3,1,4,probe1,0.05,0.05,0.2,0.2,#d55e00,#56b4e9,#FFFFFF,-0.2,0.2,#f0e442,#f0e442,#f0e442,0.2,-0.2,#0072b2,#0072b2,#0072b2,-0.2,0,#cc79a7,#cc79a7,#cc79a7,-0.2,0.1,#4A4A4A,#4A4A4A,#4A4A4A,A3NYIJYBHAJ74V,001,2020-12-11_17h54.13.128,change-localization,2020.1.2,Win32,60,,,,,,,,,
,,0.001302083,0.095052083,1,0,0,0.9147,probe3,"[0,0.1]",0,4,4,4,1,5,probe3,0.05,0.05,-0.2,0.1,#56b4e9,#56b4e9,#56b4e9,0,0.2,#009e73,#009e73,#009e73,0,0.1,#0072b2,#cc79a7,#FFFFFF,-0.1,-0.1,#4A4A4A,#4A4A4A,#4A4A4A,0.2,0,#f0e442,#f0e442,#f0e442,A3NYIJYBHAJ74V,001,2020-12-11_17h54.13.128,change-localization,2020.1.2,Win32,60,,,,,,,,,
,,0.125,-0.00390625,1,0,0,1.181275,probe5,"[0.1,0]",0,5,5,5,1,6,probe5,0.05,0.05,-0.1,0.1,#f0e442,#f0e442,#f0e442,0,0.1,#009e73,#009e73,#009e73,-0.2,0,#4A4A4A,#4A4A4A,#4A4A4A,0,-0.2,#d55e00,#d55e00,#d55e00,0.1,0,#cc79a7,#0072b2,#FFFFFF,A3NYIJYBHAJ74V,001,2020-12-11_17h54.13.128,change-localization,2020.1.2,Win32,60,,,,,,,,,
,,-0.104166667,-0.197916667,1,0,0,30.333085,probe3,"[-0.1,-0.2]",0,6,6,6,1,7,probe2,0.05,0.05,-0.2,-0.2,#4A4A4A,#4A4A4A,#4A4A4A,0.1,0.2,#0072b2,#d55e00,#FFFFFF,-0.1,-0.2,#f0e442,#f0e442,#f0e442,-0.2,0.2,#009e73,#009e73,#009e73,0.2,0.2,#e69f00,#e69f00,#e69f00,A3NYIJYBHAJ74V,001,2020-12-11_17h54.13.128,change-localization,2020.1.2,Win32,60,,,,,,,,,
,,0.1171875,-0.186197917,1,0,0,0.905345,probe1,"[0.1,-0.2]",0,7,7,7,1,8,probe1,0.05,0.05,0.1,-0.2,#009e73,#f0e442,#FFFFFF,-0.1,0,#d55e00,#d55e00,#d55e00,-0.1,0.1,#4A4A4A,#4A4A4A,#4A4A4A,-0.2,0,#cc79a7,#cc79a7,#cc79a7,0.2,0,#e69f00,#e69f00,#e69f00,A3NYIJYBHAJ74V,001,2020-12-11_17h54.13.128,change-localization,2020.1.2,Win32,60,,,,,,,,,
,,0.115885417,-0.201822917,1,0,0,1.15899,probe1,"[0.1,-0.2]",0,8,8,8,1,9,probe1,0.05,0.05,0.1,-0.2,#0072b2,#e69f00,#FFFFFF,-0.1,0.2,#f0e442,#f0e442,#f0e442,-0.2,0.1,#d55e00,#d55e00,#d55e00,0.2,0.2,#cc79a7,#cc79a7,#cc79a7,0.1,0.1,#56b4e9,#56b4e9,#56b4e9,A3NYIJYBHAJ74V,001,2020-12-11_17h54.13.128,change-localization,2020.1.2,Win32,60,,,,,,,,,
,,-0.100260417,-0.110677083,1,0,0,1.19931,probe1,"[-0.1,-0.1]",0,9,9,9,1,10,probe1,0.05,0.05,-0.1,-0.1,#4A4A4A,#f0e442,#FFFFFF,0,0.2,#cc79a7,#cc79a7,#cc79a7,0.2,-0.2,#e69f00,#e69f00,#e69f00,0.1,-0.2,#009e73,#009e73,#009e73,0.1,0.1,#d55e00,#d55e00,#d55e00,A3NYIJYBHAJ74V,001,2020-12-11_17h54.13.128,change-localization,2020.1.2,Win32,60,,,,,,,,,
,,-0.100260417,-0.015625,1,0,0,1.005135,probe3,"[-0.1,0]",,,,,,1,probe2,0.05,0.05,-0.2,0.2,#009e73,#009e73,,-0.1,0.2,#f0e442,#e69f00,,-0.1,0,#0072b2,#0072b2,,0,-0.2,#cc79a7,#cc79a7,,0,0.2,#d55e00,#d55e00,,A3NYIJYBHAJ74V,001,2020-12-11_17h54.13.128,change-localization,2020.1.2,Win32,60,c,2.110125,0,0,0,0,1,,
,,0.092447917,0.087239583,1,0,0,1.274045,probe4,"[0.1,0.1]",,,,,,2,probe5,0.05,0.05,0,0.1,#009e73,#009e73,,0.2,0.1,#4A4A4A,#4A4A4A,,-0.1,-0.1,#cc79a7,#cc79a7,,0.1,0.1,#d55e00,#d55e00,,0,-0.1,#56b4e9,#e69f00,,A3NYIJYBHAJ74V,001,2020-12-11_17h54.13.128,change-localization,2020.1.2,Win32,60,,,0,1,1,1,1,,
,,0.177083333,0.005208333,1,0,0,3.892485,probe2,"[0.2,0]",,,,,,3,probe4,0.05,0.05,0.1,-0.1,#56b4e9,#56b4e9,,0.2,0,#f0e442,#f0e442,,0.2,-0.1,#e69f00,#e69f00,,-0.1,0.1,#4A4A4A,#009e73,,-0.1,0.2,#d55e00,#d55e00,,A3NYIJYBHAJ74V,001,2020-12-11_17h54.13.128,change-localization,2020.1.2,Win32,60,,,0,2,2,2,1,,
,,0.174479167,0.00390625,1,0,0,1.71658,probe1,"[0.2,0]",,,,,,4,probe5,0.05,0.05,0.2,0,#56b4e9,#56b4e9,,-0.2,-0.2,#cc79a7,#cc79a7,,0,0.2,#4A4A4A,#4A4A4A,,0.2,-0.2,#e69f00,#e69f00,,-0.2,0,#f0e442,#009e73,,A3NYIJYBHAJ74V,001,2020-12-11_17h54.13.128,change-localization,2020.1.2,Win32,60,,,0,3,3,3,1,,
,,0.1875,0.005208333,1,0,0,8.549505,probe4,"[0.2,0]",,,,,,5,probe3,0.05,0.05,-0.2,0.1,#4A4A4A,#4A4A4A,,0.2,0.2,#009e73,#009e73,,-0.1,-0.1,#0072b2,#f0e442,,0.2,0,#cc79a7,#cc79a7,,0.1,0.1,#e69f00,#e69f00,,A3NYIJYBHAJ74V,001,2020-12-11_17h54.13.128,change-localization,2020.1.2,Win32,60,,,0,4,4,4,1,,
,,0.001302083,0.220052083,1,0,0,0.86884,probe4,"[0,0.2]",,,,,,6,probe4,0.05,0.05,-0.1,0.1,#d55e00,#d55e00,,-0.2,0.2,#0072b2,#0072b2,,0,-0.1,#e69f00,#e69f00,,0,0.2,#56b4e9,#4A4A4A,,-0.2,-0.2,#009e73,#009e73,,A3NYIJYBHAJ74V,001,2020-12-11_17h54.13.128,change-localization,2020.1.2,Win32,60,,,0,5,5,5,1,,
,,0.212239583,0.200520833,1,0,0,0.928385,probe4,"[0.2,0.2]",,,,,,7,probe4,0.05,0.05,0.2,-0.1,#56b4e9,#56b4e9,,-0.1,-0.1,#e69f00,#e69f00,,-0.2,0.2,#009e73,#009e73,,0.2,0.2,#cc79a7,#4A4A4A,,0.2,-0.2,#d55e00,#d55e00,,A3NYIJYBHAJ74V,001,2020-12-11_17h54.13.128,change-localization,2020.1.2,Win32,60,,,0,6,6,6,1,,
,,0.098958333,0.194010417,1,0,0,0.91642,probe2,"[0.1,0.2]",,,,,,8,probe4,0.05,0.05,-0.2,0.1,#e69f00,#e69f00,,0.1,0.2,#cc79a7,#cc79a7,,0.2,0.1,#4A4A4A,#4A4A4A,,-0.2,0.2,#56b4e9,#d55e00,,0.2,-0.1,#0072b2,#0072b2,,A3NYIJYBHAJ74V,001,2020-12-11_17h54.13.128,change-localization,2020.1.2,Win32,60,,,0,7,7,7,1,,
,,0.1796875,0.1953125,1,0,0,0.890685,probe5,"[0.2,0.2]",,,,,,9,probe5,0.05,0.05,-0.1,0,#4A4A4A,#4A4A4A,,0.1,0.1,#56b4e9,#56b4e9,,-0.2,0.1,#009e73,#009e73,,0.2,0.1,#cc79a7,#cc79a7,,0.2,0.2,#d55e00,#f0e442,,A3NYIJYBHAJ74V,001,2020-12-11_17h54.13.128,change-localization,2020.1.2,Win32,60,,,0,8,8,8,1,,
,,-0.028645833,0.095052083,1,0,0,0.940725,probe3,"[0,0.1]",,,,,,10,probe3,0.05,0.05,0.2,0.2,#f0e442,#f0e442,,0.1,-0.1,#e69f00,#e69f00,,0,0.1,#cc79a7,#4A4A4A,,-0.2,0.1,#56b4e9,#56b4e9,,0.2,0,#0072b2,#0072b2,,A3NYIJYBHAJ74V,001,2020-12-11_17h54.13.128,change-localization,2020.1.2,Win32,60,,,0,9,9,9,1,,
,,0.092447917,-0.24609375,1,0,0,1.577655,probe5,"[0.1,-0.2]",,,,,,11,probe5,0.05,0.05,0.2,0.2,#4A4A4A,#4A4A4A,,0.1,0.2,#0072b2,#0072b2,,0.1,-0.1,#cc79a7,#cc79a7,,0,-0.2,#009e73,#009e73,,0.1,-0.2,#f0e442,#d55e00,,A3NYIJYBHAJ74V,001,2020-12-11_17h54.13.128,change-localization,2020.1.2,Win32,60,,,0,10,10,10,1,,
,,0.002604167,-0.075520833,1,0,0,1.60432,probe5,"[0,-0.1]",,,,,,12,probe4,0.05,0.05,-0.1,-0.1,#009e73,#009e73,,-0.1,0,#56b4e9,#56b4e9,,-0.1,-0.2,#0072b2,#0072b2,,0.1,0,#d55e00,#f0e442,,0,-0.1,#cc79a7,#cc79a7,,A3NYIJYBHAJ74V,001,2020-12-11_17h54.13.128,change-localization,2020.1.2,Win32,60,,,0,11,11,11,1,,
,,-0.188802083,0.196614583,1,0,0,0.995715,probe4,"[-0.2,0.2]",,,,,,13,probe4,0.05,0.05,0,-0.1,#f0e442,#f0e442,,0.1,-0.1,#d55e00,#d55e00,,0.1,0.1,#0072b2,#0072b2,,-0.2,0.2,#cc79a7,#4A4A4A,,0.1,0.2,#009e73,#009e73,,A3NYIJYBHAJ74V,001,2020-12-11_17h54.13.128,change-localization,2020.1.2,Win32,60,,,0,12,12,12,1,,
,,0.092447917,0.196614583,1,0,0,1.304695,probe5,"[0.1,0.2]",,,,,,14,probe5,0.05,0.05,0,0.2,#cc79a7,#cc79a7,,0,-0.1,#4A4A4A,#4A4A4A,,-0.2,0,#56b4e9,#56b4e9,,0.1,0.1,#0072b2,#0072b2,,0.1,0.2,#009e73,#e69f00,,A3NYIJYBHAJ74V,001,2020-12-11_17h54.13.128,change-localization,2020.1.2,Win32,60,,,0,13,13,13,1,,
,,0.200520833,0.110677083,1,0,0,0.78215,probe3,"[0.2,0.1]",,,,,,15,probe3,0.05,0.05,0.2,0.2,#cc79a7,#cc79a7,,0,0.2,#56b4e9,#56b4e9,,0.2,0.1,#d55e00,#4A4A4A,,0.1,-0.1,#f0e442,#f0e442,,0.2,-0.1,#0072b2,#0072b2,,A3NYIJYBHAJ74V,001,2020-12-11_17h54.13.128,change-localization,2020.1.2,Win32,60,,,0,14,14,14,1,,
,,0.115885417,0.115885417,1,0,0,0.955625,probe3,"[0.1,0.1]",,,,,,16,probe3,0.05,0.05,-0.2,-0.1,#f0e442,#f0e442,,-0.2,0.2,#d55e00,#d55e00,,0.1,0.1,#009e73,#4A4A4A,,-0.2,0.1,#56b4e9,#56b4e9,,0,-0.1,#cc79a7,#cc79a7,,A3NYIJYBHAJ74V,001,2020-12-11_17h54.13.128,change-localization,2020.1.2,Win32,60,,,0,15,15,15,1,,
,,-0.01171875,0.111979167,1,0,0,1.0242,probe3,"[0,0.1]",,,,,,17,probe3,0.05,0.05,0.2,-0.1,#cc79a7,#cc79a7,,0,-0.2,#0072b2,#0072b2,,0,0.1,#4A4A4A,#e69f00,,-0.2,-0.1,#f0e442,#f0e442,,-0.1,-0.1,#009e73,#009e73,,A3NYIJYBHAJ74V,001,2020-12-11_17h54.13.128,change-localization,2020.1.2,Win32,60,,,0,16,16,16,1,,
,,0.216145833,0.001302083,1,0,0,1.33246,probe3,"[0.2,0]",,,,,,18,probe3,0.05,0.05,-0.1,0.1,#d55e00,#d55e00,,-0.1,0.2,#e69f00,#e69f00,,0.2,0,#009e73,#0072b2,,0.1,-0.1,#cc79a7,#cc79a7,,-0.2,0.2,#4A4A4A,#4A4A4A,,A3NYIJYBHAJ74V,001,2020-12-11_17h54.13.128,change-localization,2020.1.2,Win32,60,,,0,17,17,17,1,,
,,-0.118489583,0.104166667,1,0,0,1.18354,probe3,"[-0.1,0.1]",,,,,,19,probe3,0.05,0.05,-0.1,0.2,#0072b2,#0072b2,,0,-0.1,#4A4A4A,#4A4A4A,,-0.1,0.1,#e69f00,#009e73,,0.2,0.1,#d55e00,#d55e00,,-0.2,0.1,#cc79a7,#cc79a7,,A3NYIJYBHAJ74V,001,2020-12-11_17h54.13.128,change-localization,2020.1.2,Win32,60,,,0,18,18,18,1,,
,,0.01953125,-0.108072917,1,0,0,0.900855,probe4,"[0,-0.1]",,,,,,20,probe4,0.05,0.05,0.2,0,#56b4e9,#56b4e9,,-0.1,0.2,#009e73,#009e73,,-0.2,-0.2,#e69f00,#e69f00,,0,-0.1,#f0e442,#cc79a7,,-0.1,0,#4A4A4A,#4A4A4A,,A3NYIJYBHAJ74V,001,2020-12-11_17h54.13.128,change-localization,2020.1.2,Win32,60,,,0,19,19,19,1,,
,,0.213541667,0.013020833,1,0,0,1.036365,probe3,"[0.2,0]",,,,,,21,probe3,0.05,0.05,-0.1,0.1,#0072b2,#0072b2,,-0.1,0.2,#009e73,#009e73,,0.2,0,#56b4e9,#4A4A4A,,-0.2,0.2,#f0e442,#f0e442,,0.2,0.1,#d55e00,#d55e00,,A3NYIJYBHAJ74V,001,2020-12-11_17h54.13.128,change-localization,2020.1.2,Win32,60,,,0,20,20,20,1,,
,,-0.178385417,-0.083333333,1,0,0,1.41765,probe4,"[-0.2,-0.1]",,,,,,22,probe4,0.05,0.05,0.2,-0.1,#d55e00,#d55e00,,0.2,0,#56b4e9,#56b4e9,,0.1,-0.2,#cc79a7,#cc79a7,,-0.2,-0.1,#4A4A4A,#009e73,,0,-0.2,#e69f00,#e69f00,,A3NYIJYBHAJ74V,001,2020-12-11_17h54.13.128,change-localization,2020.1.2,Win32,60,,,0,21,21,21,1,,
,,0.184895833,-0.002604167,1,0,0,2.24526,probe3,"[0.2,0]",,,,,,23,probe4,0.05,0.05,0.1,0.1,#56b4e9,#56b4e9,,-0.2,-0.1,#0072b2,#0072b2,,0.2,0,#d55e00,#d55e00,,-0.2,-0.2,#cc79a7,#009e73,,0.1,-0.2,#4A4A4A,#4A4A4A,,A3NYIJYBHAJ74V,001,2020-12-11_17h54.13.128,change-localization,2020.1.2,Win32,60,,,0,22,22,22,1,,
,,0.09375,-0.108072917,1,0,0,1.546915,probe3,"[0.1,-0.1]",,,,,,24,probe2,0.05,0.05,-0.1,-0.2,#4A4A4A,#4A4A4A,,0.2,0.2,#d55e00,#e69f00,,0.1,-0.1,#f0e442,#f0e442,,0.1,0.1,#56b4e9,#56b4e9,,-0.2,0.1,#cc79a7,#cc79a7,,A3NYIJYBHAJ74V,001,2020-12-11_17h54.13.128,change-localization,2020.1.2,Win32,60,,,0,23,23,23,1,,
,,-0.010416667,0.217447917,1,0,0,1.746585,probe4,"[0,0.2]",,,,,,25,probe3,0.05,0.05,-0.2,-0.2,#f0e442,#f0e442,,-0.1,-0.1,#4A4A4A,#4A4A4A,,0.2,0,#d55e00,#cc79a7,,0,0.2,#0072b2,#0072b2,,-0.2,0.1,#009e73,#009e73,,A3NYIJYBHAJ74V,001,2020-12-11_17h54.13.128,change-localization,2020.1.2,Win32,60,,,0,24,24,24,1,,
,,0.108072917,-0.104166667,1,0,0,1.008795,probe1,"[0.1,-0.1]",,,,,,26,probe3,0.05,0.05,0.1,-0.1,#e69f00,#e69f00,,-0.2,0,#56b4e9,#56b4e9,,-0.1,-0.2,#009e73,#d55e00,,-0.2,-0.1,#4A4A4A,#4A4A4A,,0.1,0,#cc79a7,#cc79a7,,A3NYIJYBHAJ74V,001,2020-12-11_17h54.13.128,change-localization,2020.1.2,Win32,60,,,0,25,25,25,1,,
,,-0.084635417,-0.115885417,1,0,0,1.56912,probe3,"[-0.1,-0.1]",,,,,,27,probe5,0.05,0.05,-0.1,-0.2,#009e73,#009e73,,0.2,0,#cc79a7,#cc79a7,,-0.1,-0.1,#e69f00,#e69f00,,0.1,0.1,#d55e00,#d55e00,,-0.2,-0.1,#4A4A4A,#0072b2,,A3NYIJYBHAJ74V,001,2020-12-11_17h54.13.128,change-localization,2020.1.2,Win32,60,,,0,26,26,26,1,,
,,0.104166667,0.091145833,1,0,0,1.025805,probe5,"[0.1,0.1]",,,,,,28,probe5,0.05,0.05,-0.1,0.2,#009e73,#009e73,,-0.2,0.1,#56b4e9,#56b4e9,,0,-0.2,#d55e00,#d55e00,,0.1,0,#0072b2,#0072b2,,0.1,0.1,#f0e442,#e69f00,,A3NYIJYBHAJ74V,001,2020-12-11_17h54.13.128,change-localization,2020.1.2,Win32,60,,,0,27,27,27,1,,
,,0.088541667,-0.100260417,1,0,0,0.65036,probe1,"[0.1,-0.1]",,,,,,29,probe1,0.05,0.05,0.1,-0.1,#4A4A4A,#56b4e9,,-0.2,0.2,#e69f00,#e69f00,,-0.1,-0.1,#f0e442,#f0e442,,0.1,0.2,#0072b2,#0072b2,,-0.1,-0.2,#cc79a7,#cc79a7,,A3NYIJYBHAJ74V,001,2020-12-11_17h54.13.128,change-localization,2020.1.2,Win32,60,,,0,28,28,28,1,,
,,-0.0859375,-0.203125,1,0,0,0.797055,probe2,"[-0.1,-0.2]",,,,,,30,probe2,0.05,0.05,0.1,0.2,#f0e442,#f0e442,,-0.1,-0.2,#d55e00,#4A4A4A,,0,-0.2,#cc79a7,#cc79a7,,0.1,-0.2,#0072b2,#0072b2,,-0.2,0,#009e73,#009e73,,A3NYIJYBHAJ74V,001,2020-12-11_17h54.13.128,change-localization,2020.1.2,Win32,60,,,0,29,29,29,1,,
,,-0.088541667,-0.098958333,1,0,0,0.86428,probe5,"[-0.1,-0.1]",,,,,,31,probe5,0.05,0.05,0,-0.2,#d55e00,#d55e00,,0.1,0,#e69f00,#e69f00,,0.1,0.2,#f0e442,#f0e442,,-0.2,-0.1,#cc79a7,#cc79a7,,-0.1,-0.1,#009e73,#4A4A4A,,A3NYIJYBHAJ74V,001,2020-12-11_17h54.13.128,change-localization,2020.1.2,Win32,60,,,0,30,30,30,1,,
,,-0.08984375,-0.088541667,1,0,0,1.077675,probe2,"[-0.1,-0.1]",,,,,,32,probe3,0.05,0.05,0.2,0.2,#56b4e9,#56b4e9,,-0.1,-0.1,#009e73,#009e73,,0.2,0.1,#cc79a7,#0072b2,,-0.2,0.1,#4A4A4A,#4A4A4A,,-0.2,-0.1,#f0e442,#f0e442,,A3NYIJYBHAJ74V,001,2020-12-11_17h54.13.128,change-localization,2020.1.2,Win32,60,,,0,31,31,31,1,,
,,-0.088541667,-0.091145833,1,0,0,3.059635,probe1,"[-0.1,-0.1]",,,,,,33,probe3,0.05,0.05,-0.1,-0.1,#0072b2,#0072b2,,0.1,0.1,#cc79a7,#cc79a7,,-0.1,0.1,#f0e442,#009e73,,0,-0.2,#56b4e9,#56b4e9,,0.1,0.2,#e69f00,#e69f00,,A3NYIJYBHAJ74V,001,2020-12-11_17h54.13.128,change-localization,2020.1.2,Win32,60,,,0,32,32,32,1,,
,,0.087239583,-0.196614583,1,0,0,1.10347,probe3,"[0.1,-0.2]",,,,,,34,probe5,0.05,0.05,0.2,0.1,#e69f00,#e69f00,,-0.2,0.1,#cc79a7,#cc79a7,,0.1,-0.2,#0072b2,#0072b2,,0.2,-0.2,#d55e00,#d55e00,,-0.2,0,#56b4e9,#009e73,,A3NYIJYBHAJ74V,001,2020-12-11_17h54.13.128,change-localization,2020.1.2,Win32,60,,,0,33,33,33,1,,
,,0.095052083,-0.092447917,1,0,0,0.570385,probe3,"[0.1,-0.1]",,,,,,35,probe2,0.05,0.05,0.2,0,#56b4e9,#56b4e9,,0.2,-0.1,#e69f00,#009e73,,0.1,-0.1,#f0e442,#f0e442,,0,0.2,#d55e00,#d55e00,,0.1,0.2,#cc79a7,#cc79a7,,A3NYIJYBHAJ74V,001,2020-12-11_17h54.13.128,change-localization,2020.1.2,Win32,60,,,0,34,34,34,1,,
,,0.108072917,0.028645833,1,0,0,0.79733,probe5,"[0.1,0]",,,,,,36,probe3,0.05,0.05,0,0.1,#4A4A4A,#4A4A4A,,0.2,0.1,#009e73,#009e73,,-0.2,-0.1,#f0e442,#56b4e9,,-0.1,-0.1,#e69f00,#e69f00,,0.1,0,#0072b2,#0072b2,,A3NYIJYBHAJ74V,001,2020-12-11_17h54.13.128,change-localization,2020.1.2,Win32,60,,,0,35,35,35,1,,
,,0.095052083,0.002604167,1,0,0,0.65416,probe5,"[0.1,0]",,,,,,37,probe5,0.05,0.05,-0.2,0.1,#e69f00,#e69f00,,0.1,0.1,#0072b2,#0072b2,,-0.2,0,#d55e00,#d55e00,,-0.1,0.2,#cc79a7,#cc79a7,,0.1,0,#009e73,#f0e442,,A3NYIJYBHAJ74V,001,2020-12-11_17h54.13.128,change-localization,2020.1.2,Win32,60,,,0,36,36,36,1,,
,,0.076822917,0.014322917,1,0,0,2.6663,probe4,"[0.1,0]",,,,,,38,probe4,0.05,0.05,0.2,-0.2,#4A4A4A,#4A4A4A,,0.2,0,#0072b2,#0072b2,,0.1,-0.1,#e69f00,#e69f00,,0.1,0,#d55e00,#cc79a7,,0,-0.1,#009e73,#009e73,,A3NYIJYBHAJ74V,001,2020-12-11_17h54.13.128,change-localization,2020.1.2,Win32,60,,,0,37,37,37,1,,
,,0.083333333,-0.102864583,1,0,0,1.00351,probe1,"[0.1,-0.1]",,,,,,39,probe4,0.05,0.05,0.1,-0.1,#e69f00,#e69f00,,-0.2,-0.1,#cc79a7,#cc79a7,,0.2,0.1,#d55e00,#d55e00,,-0.2,0.2,#56b4e9,#f0e442,,0,-0.1,#0072b2,#0072b2,,A3NYIJYBHAJ74V,001,2020-12-11_17h54.13.128,change-localization,2020.1.2,Win32,60,,,0,38,38,38,1,,
,,-0.212239583,0.10546875,1,0,0,1.23742,probe1,"[-0.2,0.1]",,,,,,40,probe1,0.05,0.05,-0.2,0.1,#4A4A4A,#d55e00,,0.2,0.2,#009e73,#009e73,,-0.1,-0.1,#cc79a7,#cc79a7,,0.2,-0.2,#e69f00,#e69f00,,0.1,-0.1,#56b4e9,#56b4e9,,A3NYIJYBHAJ74V,001,2020-12-11_17h54.13.128,change-localization,2020.1.2,Win32,60,,,0,39,39,39,1,,
,,0.208333333,0.080729167,1,0,0,1.21197,probe1,"[0.2,0.1]",,,,,,41,probe4,0.05,0.05,0.2,0.1,#009e73,#009e73,,-0.2,-0.1,#0072b2,#0072b2,,-0.2,-0.2,#56b4e9,#56b4e9,,-0.1,0,#f0e442,#cc79a7,,0,-0.2,#d55e00,#d55e00,,A3NYIJYBHAJ74V,001,2020-12-11_17h54.13.128,change-localization,2020.1.2,Win32,60,,,0,40,40,40,1,,
,,-0.115885417,-0.0234375,1,0,0,2.021175,probe5,"[-0.1,0]",,,,,,42,probe4,0.05,0.05,-0.1,-0.2,#009e73,#009e73,,-0.1,0.1,#cc79a7,#cc79a7,,0.1,0.1,#56b4e9,#56b4e9,,0,-0.2,#e69f00,#d55e00,,-0.1,0,#0072b2,#0072b2,,A3NYIJYBHAJ74V,001,2020-12-11_17h54.13.128,change-localization,2020.1.2,Win32,60,,,0,41,41,41,1,,
,,0.197916667,-0.1171875,1,0,0,1.704695,probe1,"[0.2,-0.1]",,,,,,43,probe1,0.05,0.05,0.2,-0.1,#e69f00,#009e73,,0.1,0,#cc79a7,#cc79a7,,-0.2,-0.2,#f0e442,#f0e442,,0.2,-0.2,#56b4e9,#56b4e9,,-0.2,0.1,#4A4A4A,#4A4A4A,,A3NYIJYBHAJ74V,001,2020-12-11_17h54.13.128,change-localization,2020.1.2,Win32,60,,,0,42,42,42,1,,
,,0.09375,0.17578125,1,0,0,1.02712,probe4,"[0.1,0.2]",,,,,,44,probe1,0.05,0.05,-0.1,0.2,#56b4e9,#e69f00,,0.2,0.1,#4A4A4A,#4A4A4A,,0.1,0,#cc79a7,#cc79a7,,0.1,0.2,#f0e442,#f0e442,,-0.1,-0.1,#d55e00,#d55e00,,A3NYIJYBHAJ74V,001,2020-12-11_17h54.13.128,change-localization,2020.1.2,Win32,60,,,0,43,43,43,1,,
,,-0.104166667,0.09765625,1,0,0,1.84827,probe3,"[-0.1,0.1]",,,,,,45,probe3,0.05,0.05,-0.2,0.2,#0072b2,#0072b2,,-0.2,-0.1,#56b4e9,#56b4e9,,-0.1,0.1,#f0e442,#e69f00,,-0.1,0.2,#d55e00,#d55e00,,0,-0.2,#cc79a7,#cc79a7,,A3NYIJYBHAJ74V,001,2020-12-11_17h54.13.128,change-localization,2020.1.2,Win32,60,,,0,44,44,44,1,,
,,0.216145833,-0.25390625,1,0,0,1.449025,probe3,"[0.2,-0.2]",,,,,,46,probe5,0.05,0.05,0.2,0.1,#0072b2,#0072b2,,0.1,0.2,#f0e442,#f0e442,,0.2,-0.2,#009e73,#009e73,,0.2,0.2,#4A4A4A,#4A4A4A,,0.2,0,#cc79a7,#e69f00,,A3NYIJYBHAJ74V,001,2020-12-11_17h54.13.128,change-localization,2020.1.2,Win32,60,,,0,45,45,45,1,,
,,0.022135417,-0.09375,1,0,0,1.04161,probe1,"[0,-0.1]",,,,,,47,probe3,0.05,0.05,0,-0.1,#009e73,#009e73,,-0.2,0.2,#f0e442,#f0e442,,0.2,0.2,#56b4e9,#cc79a7,,-0.1,0.2,#4A4A4A,#4A4A4A,,-0.1,0.1,#e69f00,#e69f00,,A3NYIJYBHAJ74V,001,2020-12-11_17h54.13.128,change-localization,2020.1.2,Win32,60,,,0,46,46,46,1,,
,,-0.21875,-0.104166667,1,0,0,1.56531,probe4,"[-0.2,-0.1]",,,,,,48,probe4,0.05,0.05,0.2,-0.2,#cc79a7,#cc79a7,,-0.1,0.1,#009e73,#009e73,,0.1,-0.2,#f0e442,#f0e442,,-0.2,-0.1,#d55e00,#0072b2,,-0.1,0,#56b4e9,#56b4e9,,A3NYIJYBHAJ74V,001,2020-12-11_17h54.13.128,change-localization,2020.1.2,Win32,60,,,0,47,47,47,1,,
,,-0.118489583,-0.095052083,1,0,0,0.999995,probe5,"[-0.1,-0.1]",,,,,,49,probe2,0.05,0.05,0,-0.2,#e69f00,#e69f00,,-0.2,0,#cc79a7,#0072b2,,-0.1,0.2,#f0e442,#f0e442,,0.1,0.2,#4A4A4A,#4A4A4A,,-0.1,-0.1,#56b4e9,#56b4e9,,A3NYIJYBHAJ74V,001,2020-12-11_17h54.13.128,change-localization,2020.1.2,Win32,60,,,0,48,48,48,1,,
,,0.141927083,0.092447917,1,0,0,1.387775,probe1,"[0.2,0.1]",,,,,,50,probe4,0.05,0.05,0.2,0.1,#0072b2,#0072b2,,0.1,0.1,#cc79a7,#cc79a7,,0.1,-0.2,#56b4e9,#56b4e9,,-0.1,0,#009e73,#e69f00,,0,0.1,#d55e00,#d55e00,,A3NYIJYBHAJ74V,001,2020-12-11_17h54.13.128,change-localization,2020.1.2,Win32,60,,,0,49,49,49,1,,
,,,,,,,,,,,,,,,,,,,,,,,,,,,,,,,,,,,,,,,,,,,,A3NYIJYBHAJ74V,001,2020-12-11_17h54.13.128,change-localization,2020.1.2,Win32,60,,,,,,,,c,20.62002
