key_resp.keys,key_resp.rt,mouse.x,mouse.y,mouse.leftButton,mouse.midButton,mouse.rightButton,mouse.time,mouse.clicked_name,mouse.clicked_pos,training.thisRepN,training.thisTrialN,training.thisN,training.thisIndex,training.ran,trial,answer,height,width,x1,y1,stim_color1,probe_color1,copy_color1,x2,y2,stim_color2,probe_color2,copy_color2,x3,y3,stim_color3,probe_color3,copy_color3,x4,y4,stim_color4,probe_color4,copy_color4,x5,y5,stim_color5,probe_color5,copy_color5,participant,session,date,expName,psychopyVersion,OS,frameRate,key_resp_2.keys,key_resp_2.rt,trials.thisRepN,trials.thisTrialN,trials.thisN,trials.thisIndex,trials.ran,completion_keys.keys,completion_keys.rt
c,55.384,0.216,0.004,1,0,0,2010.796,probe5,"[0.2,0]",0,0,0,0,1,1,probe4,0.05,0.05,0.1,0.2,#0072b2,#0072b2,#0072b2,0.1,-0.1,#e69f00,#e69f00,#e69f00,-0.1,-0.2,#cc79a7,#cc79a7,#cc79a7,0.2,-0.1,#4A4A4A,#f0e442,#FFFFFF,0.2,0,#009e73,#009e73,#009e73,A3OLBTISKEB354,001,2020-12-11_20h57.34.903,change-localization,2020.1.2,Win32,60,,,,,,,,,
,,0.1632,0.0088,1,0,0,3403.108,probe1,"[0.2,0]",0,1,1,1,1,2,probe1,0.05,0.05,0.2,0,#d55e00,#009e73,#FFFFFF,0.2,-0.1,#e69f00,#e69f00,#e69f00,0.1,0,#4A4A4A,#4A4A4A,#4A4A4A,-0.1,0.1,#56b4e9,#56b4e9,#56b4e9,-0.1,0,#cc79a7,#cc79a7,#cc79a7,A3OLBTISKEB354,001,2020-12-11_20h57.34.903,change-localization,2020.1.2,Win32,60,,,,,,,,,
,,-0.1856,-0.2104,1,0,0,399.471,probe1,"[-0.2,-0.2]",0,2,2,2,1,3,probe1,0.05,0.05,-0.2,-0.2,#f0e442,#009e73,#FFFFFF,0.2,-0.1,#d55e00,#d55e00,#d55e00,-0.2,0,#4A4A4A,#4A4A4A,#4A4A4A,-0.1,-0.1,#0072b2,#0072b2,#0072b2,0,-0.1,#56b4e9,#56b4e9,#56b4e9,A3OLBTISKEB354,001,2020-12-11_20h57.34.903,change-localization,2020.1.2,Win32,60,,,,,,,,,
,,-0.208,0.188,1,0,0,2.403,probe2,"[-0.2,0.2]",0,3,3,3,1,4,probe1,0.05,0.05,0.2,0.2,#d55e00,#56b4e9,#FFFFFF,-0.2,0.2,#f0e442,#f0e442,#f0e442,0.2,-0.2,#0072b2,#0072b2,#0072b2,-0.2,0,#cc79a7,#cc79a7,#cc79a7,-0.2,0.1,#4A4A4A,#4A4A4A,#4A4A4A,A3OLBTISKEB354,001,2020-12-11_20h57.34.903,change-localization,2020.1.2,Win32,60,,,,,,,,,
,,0.0096,0.2024,1,0,0,2.869,probe2,"[0,0.2]",0,4,4,4,1,5,probe3,0.05,0.05,-0.2,0.1,#56b4e9,#56b4e9,#56b4e9,0,0.2,#009e73,#009e73,#009e73,0,0.1,#0072b2,#cc79a7,#FFFFFF,-0.1,-0.1,#4A4A4A,#4A4A4A,#4A4A4A,0.2,0,#f0e442,#f0e442,#f0e442,A3OLBTISKEB354,001,2020-12-11_20h57.34.903,change-localization,2020.1.2,Win32,60,,,,,,,,,
,,0.0144,0.0904,1,0,0,1.592,probe2,"[0,0.1]",0,5,5,5,1,6,probe5,0.05,0.05,-0.1,0.1,#f0e442,#f0e442,#f0e442,0,0.1,#009e73,#009e73,#009e73,-0.2,0,#4A4A4A,#4A4A4A,#4A4A4A,0,-0.2,#d55e00,#d55e00,#d55e00,0.1,0,#cc79a7,#0072b2,#FFFFFF,A3OLBTISKEB354,001,2020-12-11_20h57.34.903,change-localization,2020.1.2,Win32,60,,,,,,,,,
,,-0.1984,0.2024,1,0,0,1.964,probe4,"[-0.2,0.2]",0,6,6,6,1,7,probe2,0.05,0.05,-0.2,-0.2,#4A4A4A,#4A4A4A,#4A4A4A,0.1,0.2,#0072b2,#d55e00,#FFFFFF,-0.1,-0.2,#f0e442,#f0e442,#f0e442,-0.2,0.2,#009e73,#009e73,#009e73,0.2,0.2,#e69f00,#e69f00,#e69f00,A3OLBTISKEB354,001,2020-12-11_20h57.34.903,change-localization,2020.1.2,Win32,60,,,,,,,,,
,,0.1248,-0.196,1,0,0,6.74,probe1,"[0.1,-0.2]",0,7,7,7,1,8,probe1,0.05,0.05,0.1,-0.2,#009e73,#f0e442,#FFFFFF,-0.1,0,#d55e00,#d55e00,#d55e00,-0.1,0.1,#4A4A4A,#4A4A4A,#4A4A4A,-0.2,0,#cc79a7,#cc79a7,#cc79a7,0.2,0,#e69f00,#e69f00,#e69f00,A3OLBTISKEB354,001,2020-12-11_20h57.34.903,change-localization,2020.1.2,Win32,60,,,,,,,,,
,,0.0928,-0.2104,1,0,0,1.437,probe1,"[0.1,-0.2]",0,8,8,8,1,9,probe1,0.05,0.05,0.1,-0.2,#0072b2,#e69f00,#FFFFFF,-0.1,0.2,#f0e442,#f0e442,#f0e442,-0.2,0.1,#d55e00,#d55e00,#d55e00,0.2,0.2,#cc79a7,#cc79a7,#cc79a7,0.1,0.1,#56b4e9,#56b4e9,#56b4e9,A3OLBTISKEB354,001,2020-12-11_20h57.34.903,change-localization,2020.1.2,Win32,60,,,,,,,,,
,,0.0976,-0.2072,1,0,0,1.912,probe4,"[0.1,-0.2]",0,9,9,9,1,10,probe1,0.05,0.05,-0.1,-0.1,#4A4A4A,#f0e442,#FFFFFF,0,0.2,#cc79a7,#cc79a7,#cc79a7,0.2,-0.2,#e69f00,#e69f00,#e69f00,0.1,-0.2,#009e73,#009e73,#009e73,0.1,0.1,#d55e00,#d55e00,#d55e00,A3OLBTISKEB354,001,2020-12-11_20h57.34.903,change-localization,2020.1.2,Win32,60,,,,,,,,,
,,-0.2032,0.1992,1,0,0,1.19,probe1,"[-0.2,0.2]",,,,,,1,probe2,0.05,0.05,-0.2,0.2,#009e73,#009e73,,-0.1,0.2,#f0e442,#e69f00,,-0.1,0,#0072b2,#0072b2,,0,-0.2,#cc79a7,#cc79a7,,0,0.2,#d55e00,#d55e00,,A3OLBTISKEB354,001,2020-12-11_20h57.34.903,change-localization,2020.1.2,Win32,60,c,4.504,0,0,0,0,1,,
,,0.0064,0.0984,1,0,0,5.154,probe1,"[0,0.1]",,,,,,2,probe5,0.05,0.05,0,0.1,#009e73,#009e73,,0.2,0.1,#4A4A4A,#4A4A4A,,-0.1,-0.1,#cc79a7,#cc79a7,,0.1,0.1,#d55e00,#d55e00,,0,-0.1,#56b4e9,#e69f00,,A3OLBTISKEB354,001,2020-12-11_20h57.34.903,change-localization,2020.1.2,Win32,60,,,0,1,1,1,1,,
,,0.1216,-0.0856,1,0,0,1.202,probe1,"[0.1,-0.1]",,,,,,3,probe4,0.05,0.05,0.1,-0.1,#56b4e9,#56b4e9,,0.2,0,#f0e442,#f0e442,,0.2,-0.1,#e69f00,#e69f00,,-0.1,0.1,#4A4A4A,#009e73,,-0.1,0.2,#d55e00,#d55e00,,A3OLBTISKEB354,001,2020-12-11_20h57.34.903,change-localization,2020.1.2,Win32,60,,,0,2,2,2,1,,
,,0.104,-0.1096,1,0,0,0.417,probe5,"[-0.2,0]",,,,,,4,probe5,0.05,0.05,0.2,0,#56b4e9,#56b4e9,,-0.2,-0.2,#cc79a7,#cc79a7,,0,0.2,#4A4A4A,#4A4A4A,,0.2,-0.2,#e69f00,#e69f00,,-0.2,0,#f0e442,#009e73,,A3OLBTISKEB354,001,2020-12-11_20h57.34.903,change-localization,2020.1.2,Win32,60,,,0,3,3,3,1,,
,,0.2208,0.2168,1,0,0,2.034,probe2,"[0.2,0.2]",,,,,,5,probe3,0.05,0.05,-0.2,0.1,#4A4A4A,#4A4A4A,,0.2,0.2,#009e73,#009e73,,-0.1,-0.1,#0072b2,#f0e442,,0.2,0,#cc79a7,#cc79a7,,0.1,0.1,#e69f00,#e69f00,,A3OLBTISKEB354,001,2020-12-11_20h57.34.903,change-localization,2020.1.2,Win32,60,,,0,4,4,4,1,,
,,-0.2096,-0.196,1,0,0,2.798,probe5,"[-0.2,-0.2]",,,,,,6,probe4,0.05,0.05,-0.1,0.1,#d55e00,#d55e00,,-0.2,0.2,#0072b2,#0072b2,,0,-0.1,#e69f00,#e69f00,,0,0.2,#56b4e9,#4A4A4A,,-0.2,-0.2,#009e73,#009e73,,A3OLBTISKEB354,001,2020-12-11_20h57.34.903,change-localization,2020.1.2,Win32,60,,,0,5,5,5,1,,
,,-0.1904,0.2088,1,0,0,1.566,probe3,"[-0.2,0.2]",,,,,,7,probe4,0.05,0.05,0.2,-0.1,#56b4e9,#56b4e9,,-0.1,-0.1,#e69f00,#e69f00,,-0.2,0.2,#009e73,#009e73,,0.2,0.2,#cc79a7,#4A4A4A,,0.2,-0.2,#d55e00,#d55e00,,A3OLBTISKEB354,001,2020-12-11_20h57.34.903,change-localization,2020.1.2,Win32,60,,,0,6,6,6,1,,
,,-0.2048,0.1928,1,0,0,1.276,probe4,"[-0.2,0.2]",,,,,,8,probe4,0.05,0.05,-0.2,0.1,#e69f00,#e69f00,,0.1,0.2,#cc79a7,#cc79a7,,0.2,0.1,#4A4A4A,#4A4A4A,,-0.2,0.2,#56b4e9,#d55e00,,0.2,-0.1,#0072b2,#0072b2,,A3OLBTISKEB354,001,2020-12-11_20h57.34.903,change-localization,2020.1.2,Win32,60,,,0,7,7,7,1,,
,,-0.1952,0.0824,1,0,0,1.384,probe3,"[-0.2,0.1]",,,,,,9,probe5,0.05,0.05,-0.1,0,#4A4A4A,#4A4A4A,,0.1,0.1,#56b4e9,#56b4e9,,-0.2,0.1,#009e73,#009e73,,0.2,0.1,#cc79a7,#cc79a7,,0.2,0.2,#d55e00,#f0e442,,A3OLBTISKEB354,001,2020-12-11_20h57.34.903,change-localization,2020.1.2,Win32,60,,,0,8,8,8,1,,
,,-0.2112,0.1,1,0,0,2.101,probe4,"[-0.2,0.1]",,,,,,10,probe3,0.05,0.05,0.2,0.2,#f0e442,#f0e442,,0.1,-0.1,#e69f00,#e69f00,,0,0.1,#cc79a7,#4A4A4A,,-0.2,0.1,#56b4e9,#56b4e9,,0.2,0,#0072b2,#0072b2,,A3OLBTISKEB354,001,2020-12-11_20h57.34.903,change-localization,2020.1.2,Win32,60,,,0,9,9,9,1,,
,,0,-0.1912,1,0,0,1.089,probe4,"[0,-0.2]",,,,,,11,probe5,0.05,0.05,0.2,0.2,#4A4A4A,#4A4A4A,,0.1,0.2,#0072b2,#0072b2,,0.1,-0.1,#cc79a7,#cc79a7,,0,-0.2,#009e73,#009e73,,0.1,-0.2,#f0e442,#d55e00,,A3OLBTISKEB354,001,2020-12-11_20h57.34.903,change-localization,2020.1.2,Win32,60,,,0,10,10,10,1,,
,,-0.104,-0.0952,1,0,0,1.388,probe1,"[-0.1,-0.1]",,,,,,12,probe4,0.05,0.05,-0.1,-0.1,#009e73,#009e73,,-0.1,0,#56b4e9,#56b4e9,,-0.1,-0.2,#0072b2,#0072b2,,0.1,0,#d55e00,#f0e442,,0,-0.1,#cc79a7,#cc79a7,,A3OLBTISKEB354,001,2020-12-11_20h57.34.903,change-localization,2020.1.2,Win32,60,,,0,11,11,11,1,,
,,0.0016,-0.0872,1,0,0,0.436,probe1,"[0,-0.1]",,,,,,13,probe4,0.05,0.05,0,-0.1,#f0e442,#f0e442,,0.1,-0.1,#d55e00,#d55e00,,0.1,0.1,#0072b2,#0072b2,,-0.2,0.2,#cc79a7,#4A4A4A,,0.1,0.2,#009e73,#009e73,,A3OLBTISKEB354,001,2020-12-11_20h57.34.903,change-localization,2020.1.2,Win32,60,,,0,12,12,12,1,,
,,0.1008,0.1896,1,0,0,2.066,probe5,"[0.1,0.2]",,,,,,14,probe5,0.05,0.05,0,0.2,#cc79a7,#cc79a7,,0,-0.1,#4A4A4A,#4A4A4A,,-0.2,0,#56b4e9,#56b4e9,,0.1,0.1,#0072b2,#0072b2,,0.1,0.2,#009e73,#e69f00,,A3OLBTISKEB354,001,2020-12-11_20h57.34.903,change-localization,2020.1.2,Win32,60,,,0,13,13,13,1,,
,,0.1024,-0.0984,1,0,0,1.659,probe4,"[0.1,-0.1]",,,,,,15,probe3,0.05,0.05,0.2,0.2,#cc79a7,#cc79a7,,0,0.2,#56b4e9,#56b4e9,,0.2,0.1,#d55e00,#4A4A4A,,0.1,-0.1,#f0e442,#f0e442,,0.2,-0.1,#0072b2,#0072b2,,A3OLBTISKEB354,001,2020-12-11_20h57.34.903,change-localization,2020.1.2,Win32,60,,,0,14,14,14,1,,
,,0.0864,0.1176,1,0,0,4.232,probe3,"[0.1,0.1]",,,,,,16,probe3,0.05,0.05,-0.2,-0.1,#f0e442,#f0e442,,-0.2,0.2,#d55e00,#d55e00,,0.1,0.1,#009e73,#4A4A4A,,-0.2,0.1,#56b4e9,#56b4e9,,0,-0.1,#cc79a7,#cc79a7,,A3OLBTISKEB354,001,2020-12-11_20h57.34.903,change-localization,2020.1.2,Win32,60,,,0,15,15,15,1,,
,,-0.1184,-0.1,1,0,0,0.955,probe5,"[-0.1,-0.1]",,,,,,17,probe3,0.05,0.05,0.2,-0.1,#cc79a7,#cc79a7,,0,-0.2,#0072b2,#0072b2,,0,0.1,#4A4A4A,#e69f00,,-0.2,-0.1,#f0e442,#f0e442,,-0.1,-0.1,#009e73,#009e73,,A3OLBTISKEB354,001,2020-12-11_20h57.34.903,change-localization,2020.1.2,Win32,60,,,0,16,16,16,1,,
,,0.2176,-0.004,1,0,0,1.031,probe3,"[0.2,0]",,,,,,18,probe3,0.05,0.05,-0.1,0.1,#d55e00,#d55e00,,-0.1,0.2,#e69f00,#e69f00,,0.2,0,#009e73,#0072b2,,0.1,-0.1,#cc79a7,#cc79a7,,-0.2,0.2,#4A4A4A,#4A4A4A,,A3OLBTISKEB354,001,2020-12-11_20h57.34.903,change-localization,2020.1.2,Win32,60,,,0,17,17,17,1,,
,,-0.0944,0.0952,1,0,0,2.705,probe3,"[-0.1,0.1]",,,,,,19,probe3,0.05,0.05,-0.1,0.2,#0072b2,#0072b2,,0,-0.1,#4A4A4A,#4A4A4A,,-0.1,0.1,#e69f00,#009e73,,0.2,0.1,#d55e00,#d55e00,,-0.2,0.1,#cc79a7,#cc79a7,,A3OLBTISKEB354,001,2020-12-11_20h57.34.903,change-localization,2020.1.2,Win32,60,,,0,18,18,18,1,,
,,-0.088,0.1832,1,0,0,1.817,probe2,"[-0.1,0.2]",,,,,,20,probe4,0.05,0.05,0.2,0,#56b4e9,#56b4e9,,-0.1,0.2,#009e73,#009e73,,-0.2,-0.2,#e69f00,#e69f00,,0,-0.1,#f0e442,#cc79a7,,-0.1,0,#4A4A4A,#4A4A4A,,A3OLBTISKEB354,001,2020-12-11_20h57.34.903,change-localization,2020.1.2,Win32,60,,,0,19,19,19,1,,
,,-0.1184,0.18,1,0,0,1.16,probe2,"[-0.1,0.2]",,,,,,21,probe3,0.05,0.05,-0.1,0.1,#0072b2,#0072b2,,-0.1,0.2,#009e73,#009e73,,0.2,0,#56b4e9,#4A4A4A,,-0.2,0.2,#f0e442,#f0e442,,0.2,0.1,#d55e00,#d55e00,,A3OLBTISKEB354,001,2020-12-11_20h57.34.903,change-localization,2020.1.2,Win32,60,,,0,20,20,20,1,,
,,-0.1968,-0.0872,1,0,0,1.198,probe4,"[-0.2,-0.1]",,,,,,22,probe4,0.05,0.05,0.2,-0.1,#d55e00,#d55e00,,0.2,0,#56b4e9,#56b4e9,,0.1,-0.2,#cc79a7,#cc79a7,,-0.2,-0.1,#4A4A4A,#009e73,,0,-0.2,#e69f00,#e69f00,,A3OLBTISKEB354,001,2020-12-11_20h57.34.903,change-localization,2020.1.2,Win32,60,,,0,21,21,21,1,,
,,-0.1888,-0.2088,1,0,0,1.71,probe4,"[-0.2,-0.2]",,,,,,23,probe4,0.05,0.05,0.1,0.1,#56b4e9,#56b4e9,,-0.2,-0.1,#0072b2,#0072b2,,0.2,0,#d55e00,#d55e00,,-0.2,-0.2,#cc79a7,#009e73,,0.1,-0.2,#4A4A4A,#4A4A4A,,A3OLBTISKEB354,001,2020-12-11_20h57.34.903,change-localization,2020.1.2,Win32,60,,,0,22,22,22,1,,
,,-0.088,-0.1976,1,0,0,1.064,probe1,"[-0.1,-0.2]",,,,,,24,probe2,0.05,0.05,-0.1,-0.2,#4A4A4A,#4A4A4A,,0.2,0.2,#d55e00,#e69f00,,0.1,-0.1,#f0e442,#f0e442,,0.1,0.1,#56b4e9,#56b4e9,,-0.2,0.1,#cc79a7,#cc79a7,,A3OLBTISKEB354,001,2020-12-11_20h57.34.903,change-localization,2020.1.2,Win32,60,,,0,23,23,23,1,,
,,-0.1904,0.1048,1,0,0,0.96,probe5,"[-0.2,0.1]",,,,,,25,probe3,0.05,0.05,-0.2,-0.2,#f0e442,#f0e442,,-0.1,-0.1,#4A4A4A,#4A4A4A,,0.2,0,#d55e00,#cc79a7,,0,0.2,#0072b2,#0072b2,,-0.2,0.1,#009e73,#009e73,,A3OLBTISKEB354,001,2020-12-11_20h57.34.903,change-localization,2020.1.2,Win32,60,,,0,24,24,24,1,,
,,-0.1056,-0.188,1,0,0,2.813,probe3,"[-0.1,-0.2]",,,,,,26,probe3,0.05,0.05,0.1,-0.1,#e69f00,#e69f00,,-0.2,0,#56b4e9,#56b4e9,,-0.1,-0.2,#009e73,#d55e00,,-0.2,-0.1,#4A4A4A,#4A4A4A,,0.1,0,#cc79a7,#cc79a7,,A3OLBTISKEB354,001,2020-12-11_20h57.34.903,change-localization,2020.1.2,Win32,60,,,0,25,25,25,1,,
,,-0.0944,-0.212,1,0,0,18.998,probe1,"[-0.1,-0.2]",,,,,,27,probe5,0.05,0.05,-0.1,-0.2,#009e73,#009e73,,0.2,0,#cc79a7,#cc79a7,,-0.1,-0.1,#e69f00,#e69f00,,0.1,0.1,#d55e00,#d55e00,,-0.2,-0.1,#4A4A4A,#0072b2,,A3OLBTISKEB354,001,2020-12-11_20h57.34.903,change-localization,2020.1.2,Win32,60,,,0,26,26,26,1,,
,,-0.1088,0.2056,1,0,0,1.523,probe1,"[-0.1,0.2]",,,,,,28,probe5,0.05,0.05,-0.1,0.2,#009e73,#009e73,,-0.2,0.1,#56b4e9,#56b4e9,,0,-0.2,#d55e00,#d55e00,,0.1,0,#0072b2,#0072b2,,0.1,0.1,#f0e442,#e69f00,,A3OLBTISKEB354,001,2020-12-11_20h57.34.903,change-localization,2020.1.2,Win32,60,,,0,27,27,27,1,,
,,-0.2,0.204,1,0,0,6.096,probe2,"[-0.2,0.2]",,,,,,29,probe1,0.05,0.05,0.1,-0.1,#4A4A4A,#56b4e9,,-0.2,0.2,#e69f00,#e69f00,,-0.1,-0.1,#f0e442,#f0e442,,0.1,0.2,#0072b2,#0072b2,,-0.1,-0.2,#cc79a7,#cc79a7,,A3OLBTISKEB354,001,2020-12-11_20h57.34.903,change-localization,2020.1.2,Win32,60,,,0,28,28,28,1,,
,,-0.1776,-0.0088,1,0,0,1.718,probe5,"[-0.2,0]",,,,,,30,probe2,0.05,0.05,0.1,0.2,#f0e442,#f0e442,,-0.1,-0.2,#d55e00,#4A4A4A,,0,-0.2,#cc79a7,#cc79a7,,0.1,-0.2,#0072b2,#0072b2,,-0.2,0,#009e73,#009e73,,A3OLBTISKEB354,001,2020-12-11_20h57.34.903,change-localization,2020.1.2,Win32,60,,,0,29,29,29,1,,
,,-0.08,-0.1048,1,0,0,0.203,probe5,"[-0.1,-0.1]",,,,,,31,probe5,0.05,0.05,0,-0.2,#d55e00,#d55e00,,0.1,0,#e69f00,#e69f00,,0.1,0.2,#f0e442,#f0e442,,-0.2,-0.1,#cc79a7,#cc79a7,,-0.1,-0.1,#009e73,#4A4A4A,,A3OLBTISKEB354,001,2020-12-11_20h57.34.903,change-localization,2020.1.2,Win32,60,,,0,30,30,30,1,,
,,-0.1104,-0.0968,1,0,0,3.347,probe2,"[-0.1,-0.1]",,,,,,32,probe3,0.05,0.05,0.2,0.2,#56b4e9,#56b4e9,,-0.1,-0.1,#009e73,#009e73,,0.2,0.1,#cc79a7,#0072b2,,-0.2,0.1,#4A4A4A,#4A4A4A,,-0.2,-0.1,#f0e442,#f0e442,,A3OLBTISKEB354,001,2020-12-11_20h57.34.903,change-localization,2020.1.2,Win32,60,,,0,31,31,31,1,,
,,-0.0928,0.1,1,0,0,3.711,probe3,"[-0.1,0.1]",,,,,,33,probe3,0.05,0.05,-0.1,-0.1,#0072b2,#0072b2,,0.1,0.1,#cc79a7,#cc79a7,,-0.1,0.1,#f0e442,#009e73,,0,-0.2,#56b4e9,#56b4e9,,0.1,0.2,#e69f00,#e69f00,,A3OLBTISKEB354,001,2020-12-11_20h57.34.903,change-localization,2020.1.2,Win32,60,,,0,32,32,32,1,,
,,-0.2112,0.0184,1,0,0,2.808,probe5,"[-0.2,0]",,,,,,34,probe5,0.05,0.05,0.2,0.1,#e69f00,#e69f00,,-0.2,0.1,#cc79a7,#cc79a7,,0.1,-0.2,#0072b2,#0072b2,,0.2,-0.2,#d55e00,#d55e00,,-0.2,0,#56b4e9,#009e73,,A3OLBTISKEB354,001,2020-12-11_20h57.34.903,change-localization,2020.1.2,Win32,60,,,0,33,33,33,1,,
,,0.208,-0.1,1,0,0,0.886,probe2,"[0.2,-0.1]",,,,,,35,probe2,0.05,0.05,0.2,0,#56b4e9,#56b4e9,,0.2,-0.1,#e69f00,#009e73,,0.1,-0.1,#f0e442,#f0e442,,0,0.2,#d55e00,#d55e00,,0.1,0.2,#cc79a7,#cc79a7,,A3OLBTISKEB354,001,2020-12-11_20h57.34.903,change-localization,2020.1.2,Win32,60,,,0,34,34,34,1,,
,,0.2032,0.0952,1,0,0,1.553,probe2,"[0.2,0.1]",,,,,,36,probe3,0.05,0.05,0,0.1,#4A4A4A,#4A4A4A,,0.2,0.1,#009e73,#009e73,,-0.2,-0.1,#f0e442,#56b4e9,,-0.1,-0.1,#e69f00,#e69f00,,0.1,0,#0072b2,#0072b2,,A3OLBTISKEB354,001,2020-12-11_20h57.34.903,change-localization,2020.1.2,Win32,60,,,0,35,35,35,1,,
,,0.1024,0.1032,1,0,0,4.069,probe2,"[0.1,0.1]",,,,,,37,probe5,0.05,0.05,-0.2,0.1,#e69f00,#e69f00,,0.1,0.1,#0072b2,#0072b2,,-0.2,0,#d55e00,#d55e00,,-0.1,0.2,#cc79a7,#cc79a7,,0.1,0,#009e73,#f0e442,,A3OLBTISKEB354,001,2020-12-11_20h57.34.903,change-localization,2020.1.2,Win32,60,,,0,36,36,36,1,,
,,0.0064,-0.1128,1,0,0,299.162,probe5,"[0,-0.1]",,,,,,38,probe4,0.05,0.05,0.2,-0.2,#4A4A4A,#4A4A4A,,0.2,0,#0072b2,#0072b2,,0.1,-0.1,#e69f00,#e69f00,,0.1,0,#d55e00,#cc79a7,,0,-0.1,#009e73,#009e73,,A3OLBTISKEB354,001,2020-12-11_20h57.34.903,change-localization,2020.1.2,Win32,60,,,0,37,37,37,1,,
,,0.0016,-0.1032,1,0,0,1.027,probe5,"[0,-0.1]",,,,,,39,probe4,0.05,0.05,0.1,-0.1,#e69f00,#e69f00,,-0.2,-0.1,#cc79a7,#cc79a7,,0.2,0.1,#d55e00,#d55e00,,-0.2,0.2,#56b4e9,#f0e442,,0,-0.1,#0072b2,#0072b2,,A3OLBTISKEB354,001,2020-12-11_20h57.34.903,change-localization,2020.1.2,Win32,60,,,0,38,38,38,1,,
,,0.2448,0.1544,1,0,0,0.372,probe2,"[0.2,0.2]",,,,,,40,probe1,0.05,0.05,-0.2,0.1,#4A4A4A,#d55e00,,0.2,0.2,#009e73,#009e73,,-0.1,-0.1,#cc79a7,#cc79a7,,0.2,-0.2,#e69f00,#e69f00,,0.1,-0.1,#56b4e9,#56b4e9,,A3OLBTISKEB354,001,2020-12-11_20h57.34.903,change-localization,2020.1.2,Win32,60,,,0,39,39,39,1,,
,,0.1792,0.0984,1,0,0,0.45,probe1,"[0.2,0.1]",,,,,,41,probe4,0.05,0.05,0.2,0.1,#009e73,#009e73,,-0.2,-0.1,#0072b2,#0072b2,,-0.2,-0.2,#56b4e9,#56b4e9,,-0.1,0,#f0e442,#cc79a7,,0,-0.2,#d55e00,#d55e00,,A3OLBTISKEB354,001,2020-12-11_20h57.34.903,change-localization,2020.1.2,Win32,60,,,0,40,40,40,1,,
,,-0.0976,-0.1944,1,0,0,1.248,probe1,"[-0.1,-0.2]",,,,,,42,probe4,0.05,0.05,-0.1,-0.2,#009e73,#009e73,,-0.1,0.1,#cc79a7,#cc79a7,,0.1,0.1,#56b4e9,#56b4e9,,0,-0.2,#e69f00,#d55e00,,-0.1,0,#0072b2,#0072b2,,A3OLBTISKEB354,001,2020-12-11_20h57.34.903,change-localization,2020.1.2,Win32,60,,,0,41,41,41,1,,
,,0.248,-0.052,1,0,0,1.857,probe1,"[0.2,-0.1]",,,,,,43,probe1,0.05,0.05,0.2,-0.1,#e69f00,#009e73,,0.1,0,#cc79a7,#cc79a7,,-0.2,-0.2,#f0e442,#f0e442,,0.2,-0.2,#56b4e9,#56b4e9,,-0.2,0.1,#4A4A4A,#4A4A4A,,A3OLBTISKEB354,001,2020-12-11_20h57.34.903,change-localization,2020.1.2,Win32,60,,,0,42,42,42,1,,
,,0.1184,0.1864,1,0,0,792.687,probe4,"[0.1,0.2]",,,,,,44,probe1,0.05,0.05,-0.1,0.2,#56b4e9,#e69f00,,0.2,0.1,#4A4A4A,#4A4A4A,,0.1,0,#cc79a7,#cc79a7,,0.1,0.2,#f0e442,#f0e442,,-0.1,-0.1,#d55e00,#d55e00,,A3OLBTISKEB354,001,2020-12-11_20h57.34.903,change-localization,2020.1.2,Win32,60,,,0,43,43,43,1,,
,,-0.0928,0.0984,1,0,0,1.956,probe3,"[-0.1,0.1]",,,,,,45,probe3,0.05,0.05,-0.2,0.2,#0072b2,#0072b2,,-0.2,-0.1,#56b4e9,#56b4e9,,-0.1,0.1,#f0e442,#e69f00,,-0.1,0.2,#d55e00,#d55e00,,0,-0.2,#cc79a7,#cc79a7,,A3OLBTISKEB354,001,2020-12-11_20h57.34.903,change-localization,2020.1.2,Win32,60,,,0,44,44,44,1,,
,,0.2112,-0.212,1,0,0,2.886,probe3,"[0.2,-0.2]",,,,,,46,probe5,0.05,0.05,0.2,0.1,#0072b2,#0072b2,,0.1,0.2,#f0e442,#f0e442,,0.2,-0.2,#009e73,#009e73,,0.2,0.2,#4A4A4A,#4A4A4A,,0.2,0,#cc79a7,#e69f00,,A3OLBTISKEB354,001,2020-12-11_20h57.34.903,change-localization,2020.1.2,Win32,60,,,0,45,45,45,1,,
,,-0.0016,-0.0904,1,0,0,3.76,probe1,"[0,-0.1]",,,,,,47,probe3,0.05,0.05,0,-0.1,#009e73,#009e73,,-0.2,0.2,#f0e442,#f0e442,,0.2,0.2,#56b4e9,#cc79a7,,-0.1,0.2,#4A4A4A,#4A4A4A,,-0.1,0.1,#e69f00,#e69f00,,A3OLBTISKEB354,001,2020-12-11_20h57.34.903,change-localization,2020.1.2,Win32,60,,,0,46,46,46,1,,
,,-0.0016,-0.0904,1,0,0,0.134,probe2,"[-0.1,0.1]",,,,,,48,probe4,0.05,0.05,0.2,-0.2,#cc79a7,#cc79a7,,-0.1,0.1,#009e73,#009e73,,0.1,-0.2,#f0e442,#f0e442,,-0.2,-0.1,#d55e00,#0072b2,,-0.1,0,#56b4e9,#56b4e9,,A3OLBTISKEB354,001,2020-12-11_20h57.34.903,change-localization,2020.1.2,Win32,60,,,0,47,47,47,1,,
,,-0.0992,-0.1016,1,0,0,9.468,probe5,"[-0.1,-0.1]",,,,,,49,probe2,0.05,0.05,0,-0.2,#e69f00,#e69f00,,-0.2,0,#cc79a7,#0072b2,,-0.1,0.2,#f0e442,#f0e442,,0.1,0.2,#4A4A4A,#4A4A4A,,-0.1,-0.1,#56b4e9,#56b4e9,,A3OLBTISKEB354,001,2020-12-11_20h57.34.903,change-localization,2020.1.2,Win32,60,,,0,48,48,48,1,,
,,0.1936,0.0904,1,0,0,3.43,probe1,"[0.2,0.1]",,,,,,50,probe4,0.05,0.05,0.2,0.1,#0072b2,#0072b2,,0.1,0.1,#cc79a7,#cc79a7,,0.1,-0.2,#56b4e9,#56b4e9,,-0.1,0,#009e73,#e69f00,,0,0.1,#d55e00,#d55e00,,A3OLBTISKEB354,001,2020-12-11_20h57.34.903,change-localization,2020.1.2,Win32,60,,,0,49,49,49,1,,
,,,,,,,,,,,,,,,,,,,,,,,,,,,,,,,,,,,,,,,,,,,,A3OLBTISKEB354,001,2020-12-11_20h57.34.903,change-localization,2020.1.2,Win32,60,,,,,,,,c,9.735
