key_resp.keys,key_resp.rt,mouse.x,mouse.y,mouse.leftButton,mouse.midButton,mouse.rightButton,mouse.time,mouse.clicked_name,mouse.clicked_pos,training.thisRepN,training.thisTrialN,training.thisN,training.thisIndex,training.ran,trial,answer,height,width,x1,y1,stim_color1,probe_color1,copy_color1,x2,y2,stim_color2,probe_color2,copy_color2,x3,y3,stim_color3,probe_color3,copy_color3,x4,y4,stim_color4,probe_color4,copy_color4,x5,y5,stim_color5,probe_color5,copy_color5,participant,session,date,expName,psychopyVersion,OS,frameRate,key_resp_2.keys,key_resp_2.rt,trials.thisRepN,trials.thisTrialN,trials.thisN,trials.thisIndex,trials.ran,completion_keys.keys,completion_keys.rt
c,8.534,0.1968,-0.1064,1,0,0,24.737,probe4,"[0.2,-0.1]",0,0,0,0,1,1,probe4,0.05,0.05,0.1,0.2,#0072b2,#0072b2,#0072b2,0.1,-0.1,#e69f00,#e69f00,#e69f00,-0.1,-0.2,#cc79a7,#cc79a7,#cc79a7,0.2,-0.1,#4A4A4A,#f0e442,#FFFFFF,0.2,0,#009e73,#009e73,#009e73,A3OLBTISKEB354,001,2020-12-11_20h46.45.987,change-localization,2020.1.2,Win32,60,,,,,,,,,
,,0.2144,-0.0088,1,0,0,1.917,probe1,"[0.2,0]",0,1,1,1,1,2,probe1,0.05,0.05,0.2,0,#d55e00,#009e73,#FFFFFF,0.2,-0.1,#e69f00,#e69f00,#e69f00,0.1,0,#4A4A4A,#4A4A4A,#4A4A4A,-0.1,0.1,#56b4e9,#56b4e9,#56b4e9,-0.1,0,#cc79a7,#cc79a7,#cc79a7,A3OLBTISKEB354,001,2020-12-11_20h46.45.987,change-localization,2020.1.2,Win32,60,,,,,,,,,
,,-0.192,-0.2008,1,0,0,1.748,probe1,"[-0.2,-0.2]",0,2,2,2,1,3,probe1,0.05,0.05,-0.2,-0.2,#f0e442,#009e73,#FFFFFF,0.2,-0.1,#d55e00,#d55e00,#d55e00,-0.2,0,#4A4A4A,#4A4A4A,#4A4A4A,-0.1,-0.1,#0072b2,#0072b2,#0072b2,0,-0.1,#56b4e9,#56b4e9,#56b4e9,A3OLBTISKEB354,001,2020-12-11_20h46.45.987,change-localization,2020.1.2,Win32,60,,,,,,,,,
,,-0.1888,0.0008,1,0,0,3.14,probe4,"[-0.2,0]",0,3,3,3,1,4,probe1,0.05,0.05,0.2,0.2,#d55e00,#56b4e9,#FFFFFF,-0.2,0.2,#f0e442,#f0e442,#f0e442,0.2,-0.2,#0072b2,#0072b2,#0072b2,-0.2,0,#cc79a7,#cc79a7,#cc79a7,-0.2,0.1,#4A4A4A,#4A4A4A,#4A4A4A,A3OLBTISKEB354,001,2020-12-11_20h46.45.987,change-localization,2020.1.2,Win32,60,,,,,,,,,
,,-0.0032,0.2104,1,0,0,1.506,probe2,"[0,0.2]",0,4,4,4,1,5,probe3,0.05,0.05,-0.2,0.1,#56b4e9,#56b4e9,#56b4e9,0,0.2,#009e73,#009e73,#009e73,0,0.1,#0072b2,#cc79a7,#FFFFFF,-0.1,-0.1,#4A4A4A,#4A4A4A,#4A4A4A,0.2,0,#f0e442,#f0e442,#f0e442,A3OLBTISKEB354,001,2020-12-11_20h46.45.987,change-localization,2020.1.2,Win32,60,,,,,,,,,
,,0.0016,0.1,1,0,0,0.93,probe2,"[0,0.1]",0,5,5,5,1,6,probe5,0.05,0.05,-0.1,0.1,#f0e442,#f0e442,#f0e442,0,0.1,#009e73,#009e73,#009e73,-0.2,0,#4A4A4A,#4A4A4A,#4A4A4A,0,-0.2,#d55e00,#d55e00,#d55e00,0.1,0,#cc79a7,#0072b2,#FFFFFF,A3OLBTISKEB354,001,2020-12-11_20h46.45.987,change-localization,2020.1.2,Win32,60,,,,,,,,,
,,-0.1856,0.1848,1,0,0,1.572,probe4,"[-0.2,0.2]",0,6,6,6,1,7,probe2,0.05,0.05,-0.2,-0.2,#4A4A4A,#4A4A4A,#4A4A4A,0.1,0.2,#0072b2,#d55e00,#FFFFFF,-0.1,-0.2,#f0e442,#f0e442,#f0e442,-0.2,0.2,#009e73,#009e73,#009e73,0.2,0.2,#e69f00,#e69f00,#e69f00,A3OLBTISKEB354,001,2020-12-11_20h46.45.987,change-localization,2020.1.2,Win32,60,,,,,,,,,
,,0.1088,-0.2024,1,0,0,1.193,probe1,"[0.1,-0.2]",0,7,7,7,1,8,probe1,0.05,0.05,0.1,-0.2,#009e73,#f0e442,#FFFFFF,-0.1,0,#d55e00,#d55e00,#d55e00,-0.1,0.1,#4A4A4A,#4A4A4A,#4A4A4A,-0.2,0,#cc79a7,#cc79a7,#cc79a7,0.2,0,#e69f00,#e69f00,#e69f00,A3OLBTISKEB354,001,2020-12-11_20h46.45.987,change-localization,2020.1.2,Win32,60,,,,,,,,,
,,0.0768,-0.1912,1,0,0,3.267,probe1,"[0.1,-0.2]",0,8,8,8,1,9,probe1,0.05,0.05,0.1,-0.2,#0072b2,#e69f00,#FFFFFF,-0.1,0.2,#f0e442,#f0e442,#f0e442,-0.2,0.1,#d55e00,#d55e00,#d55e00,0.2,0.2,#cc79a7,#cc79a7,#cc79a7,0.1,0.1,#56b4e9,#56b4e9,#56b4e9,A3OLBTISKEB354,001,2020-12-11_20h46.45.987,change-localization,2020.1.2,Win32,60,,,,,,,,,
,,0.0912,-0.1912,1,0,0,0.935,probe4,"[0.1,-0.2]",0,9,9,9,1,10,probe1,0.05,0.05,-0.1,-0.1,#4A4A4A,#f0e442,#FFFFFF,0,0.2,#cc79a7,#cc79a7,#cc79a7,0.2,-0.2,#e69f00,#e69f00,#e69f00,0.1,-0.2,#009e73,#009e73,#009e73,0.1,0.1,#d55e00,#d55e00,#d55e00,A3OLBTISKEB354,001,2020-12-11_20h46.45.987,change-localization,2020.1.2,Win32,60,,,,,,,,,
,,-0.2032,0.196,1,0,0,1.305,probe1,"[-0.2,0.2]",,,,,,1,probe2,0.05,0.05,-0.2,0.2,#009e73,#009e73,,-0.1,0.2,#f0e442,#e69f00,,-0.1,0,#0072b2,#0072b2,,0,-0.2,#cc79a7,#cc79a7,,0,0.2,#d55e00,#d55e00,,A3OLBTISKEB354,001,2020-12-11_20h46.45.987,change-localization,2020.1.2,Win32,60,c,12.326,0,0,0,0,1,,
,,0,0.1128,1,0,0,1.555,probe1,"[0,0.1]",,,,,,2,probe5,0.05,0.05,0,0.1,#009e73,#009e73,,0.2,0.1,#4A4A4A,#4A4A4A,,-0.1,-0.1,#cc79a7,#cc79a7,,0.1,0.1,#d55e00,#d55e00,,0,-0.1,#56b4e9,#e69f00,,A3OLBTISKEB354,001,2020-12-11_20h46.45.987,change-localization,2020.1.2,Win32,60,,,0,1,1,1,1,,
,,-0.1056,0.0984,1,0,0,1.65,probe4,"[-0.1,0.1]",,,,,,3,probe4,0.05,0.05,0.1,-0.1,#56b4e9,#56b4e9,,0.2,0,#f0e442,#f0e442,,0.2,-0.1,#e69f00,#e69f00,,-0.1,0.1,#4A4A4A,#009e73,,-0.1,0.2,#d55e00,#d55e00,,A3OLBTISKEB354,001,2020-12-11_20h46.45.987,change-localization,2020.1.2,Win32,60,,,0,2,2,2,1,,
,,-0.1984,0.0024,1,0,0,1.627,probe5,"[-0.2,0]",,,,,,4,probe5,0.05,0.05,0.2,0,#56b4e9,#56b4e9,,-0.2,-0.2,#cc79a7,#cc79a7,,0,0.2,#4A4A4A,#4A4A4A,,0.2,-0.2,#e69f00,#e69f00,,-0.2,0,#f0e442,#009e73,,A3OLBTISKEB354,001,2020-12-11_20h46.45.987,change-localization,2020.1.2,Win32,60,,,0,3,3,3,1,,
,,0.1856,0.1592,1,0,0,0.186,probe2,"[0.2,0.2]",,,,,,5,probe3,0.05,0.05,-0.2,0.1,#4A4A4A,#4A4A4A,,0.2,0.2,#009e73,#009e73,,-0.1,-0.1,#0072b2,#f0e442,,0.2,0,#cc79a7,#cc79a7,,0.1,0.1,#e69f00,#e69f00,,A3OLBTISKEB354,001,2020-12-11_20h46.45.987,change-localization,2020.1.2,Win32,60,,,0,4,4,4,1,,
,,-0.2,-0.2008,1,0,0,1.166,probe5,"[-0.2,-0.2]",,,,,,6,probe4,0.05,0.05,-0.1,0.1,#d55e00,#d55e00,,-0.2,0.2,#0072b2,#0072b2,,0,-0.1,#e69f00,#e69f00,,0,0.2,#56b4e9,#4A4A4A,,-0.2,-0.2,#009e73,#009e73,,A3OLBTISKEB354,001,2020-12-11_20h46.45.987,change-localization,2020.1.2,Win32,60,,,0,5,5,5,1,,
,,-0.1872,0.188,1,0,0,1.834,probe3,"[-0.2,0.2]",,,,,,7,probe4,0.05,0.05,0.2,-0.1,#56b4e9,#56b4e9,,-0.1,-0.1,#e69f00,#e69f00,,-0.2,0.2,#009e73,#009e73,,0.2,0.2,#cc79a7,#4A4A4A,,0.2,-0.2,#d55e00,#d55e00,,A3OLBTISKEB354,001,2020-12-11_20h46.45.987,change-localization,2020.1.2,Win32,60,,,0,6,6,6,1,,
,,-0.1936,0.1032,1,0,0,1.207,probe1,"[-0.2,0.1]",,,,,,8,probe4,0.05,0.05,-0.2,0.1,#e69f00,#e69f00,,0.1,0.2,#cc79a7,#cc79a7,,0.2,0.1,#4A4A4A,#4A4A4A,,-0.2,0.2,#56b4e9,#d55e00,,0.2,-0.1,#0072b2,#0072b2,,A3OLBTISKEB354,001,2020-12-11_20h46.45.987,change-localization,2020.1.2,Win32,60,,,0,7,7,7,1,,
,,-0.192,0.1016,1,0,0,2.381,probe3,"[-0.2,0.1]",,,,,,9,probe5,0.05,0.05,-0.1,0,#4A4A4A,#4A4A4A,,0.1,0.1,#56b4e9,#56b4e9,,-0.2,0.1,#009e73,#009e73,,0.2,0.1,#cc79a7,#cc79a7,,0.2,0.2,#d55e00,#f0e442,,A3OLBTISKEB354,001,2020-12-11_20h46.45.987,change-localization,2020.1.2,Win32,60,,,0,8,8,8,1,,
,,-0.1936,0.0984,1,0,0,1.483,probe4,"[-0.2,0.1]",,,,,,10,probe3,0.05,0.05,0.2,0.2,#f0e442,#f0e442,,0.1,-0.1,#e69f00,#e69f00,,0,0.1,#cc79a7,#4A4A4A,,-0.2,0.1,#56b4e9,#56b4e9,,0.2,0,#0072b2,#0072b2,,A3OLBTISKEB354,001,2020-12-11_20h46.45.987,change-localization,2020.1.2,Win32,60,,,0,9,9,9,1,,
,,-0.0176,-0.2008,1,0,0,1.81,probe4,"[0,-0.2]",,,,,,11,probe5,0.05,0.05,0.2,0.2,#4A4A4A,#4A4A4A,,0.1,0.2,#0072b2,#0072b2,,0.1,-0.1,#cc79a7,#cc79a7,,0,-0.2,#009e73,#009e73,,0.1,-0.2,#f0e442,#d55e00,,A3OLBTISKEB354,001,2020-12-11_20h46.45.987,change-localization,2020.1.2,Win32,60,,,0,10,10,10,1,,
,,-0.1104,-0.0968,1,0,0,193.979,probe1,"[-0.1,-0.1]",,,,,,12,probe4,0.05,0.05,-0.1,-0.1,#009e73,#009e73,,-0.1,0,#56b4e9,#56b4e9,,-0.1,-0.2,#0072b2,#0072b2,,0.1,0,#d55e00,#f0e442,,0,-0.1,#cc79a7,#cc79a7,,A3OLBTISKEB354,001,2020-12-11_20h46.45.987,change-localization,2020.1.2,Win32,60,,,0,11,11,11,1,,
,,0.1088,0.196,1,0,0,77.289,probe5,"[0.1,0.2]",,,,,,13,probe4,0.05,0.05,0,-0.1,#f0e442,#f0e442,,0.1,-0.1,#d55e00,#d55e00,,0.1,0.1,#0072b2,#0072b2,,-0.2,0.2,#cc79a7,#4A4A4A,,0.1,0.2,#009e73,#009e73,,A3OLBTISKEB354,001,2020-12-11_20h46.45.987,change-localization,2020.1.2,Win32,60,,,0,12,12,12,1,,
,,0.1088,0.196,1,0,0,1.302,probe5,"[0.1,0.2]",,,,,,14,probe5,0.05,0.05,0,0.2,#cc79a7,#cc79a7,,0,-0.1,#4A4A4A,#4A4A4A,,-0.2,0,#56b4e9,#56b4e9,,0.1,0.1,#0072b2,#0072b2,,0.1,0.2,#009e73,#e69f00,,A3OLBTISKEB354,001,2020-12-11_20h46.45.987,change-localization,2020.1.2,Win32,60,,,0,13,13,13,1,,
,,0.0944,0.1256,1,0,0,0.304,probe1,"[0.2,0.2]",,,,,,15,probe3,0.05,0.05,0.2,0.2,#cc79a7,#cc79a7,,0,0.2,#56b4e9,#56b4e9,,0.2,0.1,#d55e00,#4A4A4A,,0.1,-0.1,#f0e442,#f0e442,,0.2,-0.1,#0072b2,#0072b2,,A3OLBTISKEB354,001,2020-12-11_20h46.45.987,change-localization,2020.1.2,Win32,60,,,0,14,14,14,1,,
,,0.0896,0.0952,1,0,0,2.004,probe3,"[0.1,0.1]",,,,,,16,probe3,0.05,0.05,-0.2,-0.1,#f0e442,#f0e442,,-0.2,0.2,#d55e00,#d55e00,,0.1,0.1,#009e73,#4A4A4A,,-0.2,0.1,#56b4e9,#56b4e9,,0,-0.1,#cc79a7,#cc79a7,,A3OLBTISKEB354,001,2020-12-11_20h46.45.987,change-localization,2020.1.2,Win32,60,,,0,15,15,15,1,,
,,-0.104,-0.1064,1,0,0,0.916,probe5,"[-0.1,-0.1]",,,,,,17,probe3,0.05,0.05,0.2,-0.1,#cc79a7,#cc79a7,,0,-0.2,#0072b2,#0072b2,,0,0.1,#4A4A4A,#e69f00,,-0.2,-0.1,#f0e442,#f0e442,,-0.1,-0.1,#009e73,#009e73,,A3OLBTISKEB354,001,2020-12-11_20h46.45.987,change-localization,2020.1.2,Win32,60,,,0,16,16,16,1,,
,,0.1904,-0.004,1,0,0,2.523,probe3,"[0.2,0]",,,,,,18,probe3,0.05,0.05,-0.1,0.1,#d55e00,#d55e00,,-0.1,0.2,#e69f00,#e69f00,,0.2,0,#009e73,#0072b2,,0.1,-0.1,#cc79a7,#cc79a7,,-0.2,0.2,#4A4A4A,#4A4A4A,,A3OLBTISKEB354,001,2020-12-11_20h46.45.987,change-localization,2020.1.2,Win32,60,,,0,17,17,17,1,,
,,-0.1024,0.1,1,0,0,11.641,probe3,"[-0.1,0.1]",,,,,,19,probe3,0.05,0.05,-0.1,0.2,#0072b2,#0072b2,,0,-0.1,#4A4A4A,#4A4A4A,,-0.1,0.1,#e69f00,#009e73,,0.2,0.1,#d55e00,#d55e00,,-0.2,0.1,#cc79a7,#cc79a7,,A3OLBTISKEB354,001,2020-12-11_20h46.45.987,change-localization,2020.1.2,Win32,60,,,0,18,18,18,1,,
,,-0.0928,0.2056,1,0,0,4.097,probe2,"[-0.1,0.2]",,,,,,20,probe4,0.05,0.05,0.2,0,#56b4e9,#56b4e9,,-0.1,0.2,#009e73,#009e73,,-0.2,-0.2,#e69f00,#e69f00,,0,-0.1,#f0e442,#cc79a7,,-0.1,0,#4A4A4A,#4A4A4A,,A3OLBTISKEB354,001,2020-12-11_20h46.45.987,change-localization,2020.1.2,Win32,60,,,0,19,19,19,1,,
,,-0.1024,0.2024,1,0,0,1.162,probe2,"[-0.1,0.2]",,,,,,21,probe3,0.05,0.05,-0.1,0.1,#0072b2,#0072b2,,-0.1,0.2,#009e73,#009e73,,0.2,0,#56b4e9,#4A4A4A,,-0.2,0.2,#f0e442,#f0e442,,0.2,0.1,#d55e00,#d55e00,,A3OLBTISKEB354,001,2020-12-11_20h46.45.987,change-localization,2020.1.2,Win32,60,,,0,20,20,20,1,,
,,-0.208,-0.0968,1,0,0,3.31,probe4,"[-0.2,-0.1]",,,,,,22,probe4,0.05,0.05,0.2,-0.1,#d55e00,#d55e00,,0.2,0,#56b4e9,#56b4e9,,0.1,-0.2,#cc79a7,#cc79a7,,-0.2,-0.1,#4A4A4A,#009e73,,0,-0.2,#e69f00,#e69f00,,A3OLBTISKEB354,001,2020-12-11_20h46.45.987,change-localization,2020.1.2,Win32,60,,,0,21,21,21,1,,
,,-0.1936,-0.1928,1,0,0,1.833,probe4,"[-0.2,-0.2]",,,,,,23,probe4,0.05,0.05,0.1,0.1,#56b4e9,#56b4e9,,-0.2,-0.1,#0072b2,#0072b2,,0.2,0,#d55e00,#d55e00,,-0.2,-0.2,#cc79a7,#009e73,,0.1,-0.2,#4A4A4A,#4A4A4A,,A3OLBTISKEB354,001,2020-12-11_20h46.45.987,change-localization,2020.1.2,Win32,60,,,0,22,22,22,1,,
,,-0.0816,-0.1992,1,0,0,0.908,probe1,"[-0.1,-0.2]",,,,,,24,probe2,0.05,0.05,-0.1,-0.2,#4A4A4A,#4A4A4A,,0.2,0.2,#d55e00,#e69f00,,0.1,-0.1,#f0e442,#f0e442,,0.1,0.1,#56b4e9,#56b4e9,,-0.2,0.1,#cc79a7,#cc79a7,,A3OLBTISKEB354,001,2020-12-11_20h46.45.987,change-localization,2020.1.2,Win32,60,,,0,23,23,23,1,,
,,-0.2096,0.0952,1,0,0,1.38,probe5,"[-0.2,0.1]",,,,,,25,probe3,0.05,0.05,-0.2,-0.2,#f0e442,#f0e442,,-0.1,-0.1,#4A4A4A,#4A4A4A,,0.2,0,#d55e00,#cc79a7,,0,0.2,#0072b2,#0072b2,,-0.2,0.1,#009e73,#009e73,,A3OLBTISKEB354,001,2020-12-11_20h46.45.987,change-localization,2020.1.2,Win32,60,,,0,24,24,24,1,,
,,-0.2032,-0.004,1,0,0,3.528,probe2,"[-0.2,0]",,,,,,26,probe3,0.05,0.05,0.1,-0.1,#e69f00,#e69f00,,-0.2,0,#56b4e9,#56b4e9,,-0.1,-0.2,#009e73,#d55e00,,-0.2,-0.1,#4A4A4A,#4A4A4A,,0.1,0,#cc79a7,#cc79a7,,A3OLBTISKEB354,001,2020-12-11_20h46.45.987,change-localization,2020.1.2,Win32,60,,,0,25,25,25,1,,
,,-0.0912,-0.1976,1,0,0,2.091,probe1,"[-0.1,-0.2]",,,,,,27,probe5,0.05,0.05,-0.1,-0.2,#009e73,#009e73,,0.2,0,#cc79a7,#cc79a7,,-0.1,-0.1,#e69f00,#e69f00,,0.1,0.1,#d55e00,#d55e00,,-0.2,-0.1,#4A4A4A,#0072b2,,A3OLBTISKEB354,001,2020-12-11_20h46.45.987,change-localization,2020.1.2,Win32,60,,,0,26,26,26,1,,
,,-0.1008,0.1944,1,0,0,1.436,probe1,"[-0.1,0.2]",,,,,,28,probe5,0.05,0.05,-0.1,0.2,#009e73,#009e73,,-0.2,0.1,#56b4e9,#56b4e9,,0,-0.2,#d55e00,#d55e00,,0.1,0,#0072b2,#0072b2,,0.1,0.1,#f0e442,#e69f00,,A3OLBTISKEB354,001,2020-12-11_20h46.45.987,change-localization,2020.1.2,Win32,60,,,0,27,27,27,1,,
,,-0.1872,0.196,1,0,0,1.035,probe2,"[-0.2,0.2]",,,,,,29,probe1,0.05,0.05,0.1,-0.1,#4A4A4A,#56b4e9,,-0.2,0.2,#e69f00,#e69f00,,-0.1,-0.1,#f0e442,#f0e442,,0.1,0.2,#0072b2,#0072b2,,-0.1,-0.2,#cc79a7,#cc79a7,,A3OLBTISKEB354,001,2020-12-11_20h46.45.987,change-localization,2020.1.2,Win32,60,,,0,28,28,28,1,,
,,-0.1968,0.012,1,0,0,1.034,probe5,"[-0.2,0]",,,,,,30,probe2,0.05,0.05,0.1,0.2,#f0e442,#f0e442,,-0.1,-0.2,#d55e00,#4A4A4A,,0,-0.2,#cc79a7,#cc79a7,,0.1,-0.2,#0072b2,#0072b2,,-0.2,0,#009e73,#009e73,,A3OLBTISKEB354,001,2020-12-11_20h46.45.987,change-localization,2020.1.2,Win32,60,,,0,29,29,29,1,,
,,0.096,-0.0136,1,0,0,12.292,probe2,"[0.1,0]",,,,,,31,probe5,0.05,0.05,0,-0.2,#d55e00,#d55e00,,0.1,0,#e69f00,#e69f00,,0.1,0.2,#f0e442,#f0e442,,-0.2,-0.1,#cc79a7,#cc79a7,,-0.1,-0.1,#009e73,#4A4A4A,,A3OLBTISKEB354,001,2020-12-11_20h46.45.987,change-localization,2020.1.2,Win32,60,,,0,30,30,30,1,,
,,-0.104,-0.1032,1,0,0,2.35,probe2,"[-0.1,-0.1]",,,,,,32,probe3,0.05,0.05,0.2,0.2,#56b4e9,#56b4e9,,-0.1,-0.1,#009e73,#009e73,,0.2,0.1,#cc79a7,#0072b2,,-0.2,0.1,#4A4A4A,#4A4A4A,,-0.2,-0.1,#f0e442,#f0e442,,A3OLBTISKEB354,001,2020-12-11_20h46.45.987,change-localization,2020.1.2,Win32,60,,,0,31,31,31,1,,
,,-0.0992,0.0968,1,0,0,1.625,probe3,"[-0.1,0.1]",,,,,,33,probe3,0.05,0.05,-0.1,-0.1,#0072b2,#0072b2,,0.1,0.1,#cc79a7,#cc79a7,,-0.1,0.1,#f0e442,#009e73,,0,-0.2,#56b4e9,#56b4e9,,0.1,0.2,#e69f00,#e69f00,,A3OLBTISKEB354,001,2020-12-11_20h46.45.987,change-localization,2020.1.2,Win32,60,,,0,32,32,32,1,,
,,-0.1936,-0.0008,1,0,0,1.472,probe5,"[-0.2,0]",,,,,,34,probe5,0.05,0.05,0.2,0.1,#e69f00,#e69f00,,-0.2,0.1,#cc79a7,#cc79a7,,0.1,-0.2,#0072b2,#0072b2,,0.2,-0.2,#d55e00,#d55e00,,-0.2,0,#56b4e9,#009e73,,A3OLBTISKEB354,001,2020-12-11_20h46.45.987,change-localization,2020.1.2,Win32,60,,,0,33,33,33,1,,
,,0.2032,-0.1064,1,0,0,2.538,probe2,"[0.2,-0.1]",,,,,,35,probe2,0.05,0.05,0.2,0,#56b4e9,#56b4e9,,0.2,-0.1,#e69f00,#009e73,,0.1,-0.1,#f0e442,#f0e442,,0,0.2,#d55e00,#d55e00,,0.1,0.2,#cc79a7,#cc79a7,,A3OLBTISKEB354,001,2020-12-11_20h46.45.987,change-localization,2020.1.2,Win32,60,,,0,34,34,34,1,,
,,0.2,0.1,1,0,0,1.09,probe2,"[0.2,0.1]",,,,,,36,probe3,0.05,0.05,0,0.1,#4A4A4A,#4A4A4A,,0.2,0.1,#009e73,#009e73,,-0.2,-0.1,#f0e442,#56b4e9,,-0.1,-0.1,#e69f00,#e69f00,,0.1,0,#0072b2,#0072b2,,A3OLBTISKEB354,001,2020-12-11_20h46.45.987,change-localization,2020.1.2,Win32,60,,,0,35,35,35,1,,
,,0.0992,0.012,1,0,0,1.127,probe5,"[0.1,0]",,,,,,37,probe5,0.05,0.05,-0.2,0.1,#e69f00,#e69f00,,0.1,0.1,#0072b2,#0072b2,,-0.2,0,#d55e00,#d55e00,,-0.1,0.2,#cc79a7,#cc79a7,,0.1,0,#009e73,#f0e442,,A3OLBTISKEB354,001,2020-12-11_20h46.45.987,change-localization,2020.1.2,Win32,60,,,0,36,36,36,1,,
,,-0.0112,-0.0984,1,0,0,0.946,probe5,"[0,-0.1]",,,,,,38,probe4,0.05,0.05,0.2,-0.2,#4A4A4A,#4A4A4A,,0.2,0,#0072b2,#0072b2,,0.1,-0.1,#e69f00,#e69f00,,0.1,0,#d55e00,#cc79a7,,0,-0.1,#009e73,#009e73,,A3OLBTISKEB354,001,2020-12-11_20h46.45.987,change-localization,2020.1.2,Win32,60,,,0,37,37,37,1,,
,,-0.008,-0.0936,1,0,0,1.261,probe5,"[0,-0.1]",,,,,,39,probe4,0.05,0.05,0.1,-0.1,#e69f00,#e69f00,,-0.2,-0.1,#cc79a7,#cc79a7,,0.2,0.1,#d55e00,#d55e00,,-0.2,0.2,#56b4e9,#f0e442,,0,-0.1,#0072b2,#0072b2,,A3OLBTISKEB354,001,2020-12-11_20h46.45.987,change-localization,2020.1.2,Win32,60,,,0,38,38,38,1,,
,,0.208,0.204,1,0,0,1.338,probe2,"[0.2,0.2]",,,,,,40,probe1,0.05,0.05,-0.2,0.1,#4A4A4A,#d55e00,,0.2,0.2,#009e73,#009e73,,-0.1,-0.1,#cc79a7,#cc79a7,,0.2,-0.2,#e69f00,#e69f00,,0.1,-0.1,#56b4e9,#56b4e9,,A3OLBTISKEB354,001,2020-12-11_20h46.45.987,change-localization,2020.1.2,Win32,60,,,0,39,39,39,1,,
,,0.216,0.0952,1,0,0,1.648,probe1,"[0.2,0.1]",,,,,,41,probe4,0.05,0.05,0.2,0.1,#009e73,#009e73,,-0.2,-0.1,#0072b2,#0072b2,,-0.2,-0.2,#56b4e9,#56b4e9,,-0.1,0,#f0e442,#cc79a7,,0,-0.2,#d55e00,#d55e00,,A3OLBTISKEB354,001,2020-12-11_20h46.45.987,change-localization,2020.1.2,Win32,60,,,0,40,40,40,1,,
,,-0.0944,-0.1944,1,0,0,3.89,probe1,"[-0.1,-0.2]",,,,,,42,probe4,0.05,0.05,-0.1,-0.2,#009e73,#009e73,,-0.1,0.1,#cc79a7,#cc79a7,,0.1,0.1,#56b4e9,#56b4e9,,0,-0.2,#e69f00,#d55e00,,-0.1,0,#0072b2,#0072b2,,A3OLBTISKEB354,001,2020-12-11_20h46.45.987,change-localization,2020.1.2,Win32,60,,,0,41,41,41,1,,
,,0.2,-0.0872,1,0,0,4.847,probe1,"[0.2,-0.1]",,,,,,43,probe1,0.05,0.05,0.2,-0.1,#e69f00,#009e73,,0.1,0,#cc79a7,#cc79a7,,-0.2,-0.2,#f0e442,#f0e442,,0.2,-0.2,#56b4e9,#56b4e9,,-0.2,0.1,#4A4A4A,#4A4A4A,,A3OLBTISKEB354,001,2020-12-11_20h46.45.987,change-localization,2020.1.2,Win32,60,,,0,42,42,42,1,,
,,-0.0944,-0.1,1,0,0,1.541,probe5,"[-0.1,-0.1]",,,,,,44,probe1,0.05,0.05,-0.1,0.2,#56b4e9,#e69f00,,0.2,0.1,#4A4A4A,#4A4A4A,,0.1,0,#cc79a7,#cc79a7,,0.1,0.2,#f0e442,#f0e442,,-0.1,-0.1,#d55e00,#d55e00,,A3OLBTISKEB354,001,2020-12-11_20h46.45.987,change-localization,2020.1.2,Win32,60,,,0,43,43,43,1,,
,,-0.2096,-0.1048,1,0,0,1.188,probe2,"[-0.2,-0.1]",,,,,,45,probe3,0.05,0.05,-0.2,0.2,#0072b2,#0072b2,,-0.2,-0.1,#56b4e9,#56b4e9,,-0.1,0.1,#f0e442,#e69f00,,-0.1,0.2,#d55e00,#d55e00,,0,-0.2,#cc79a7,#cc79a7,,A3OLBTISKEB354,001,2020-12-11_20h46.45.987,change-localization,2020.1.2,Win32,60,,,0,44,44,44,1,,
,,0.1952,-0.2008,1,0,0,0.277,probe3,"[0.2,-0.2]",,,,,,46,probe5,0.05,0.05,0.2,0.1,#0072b2,#0072b2,,0.1,0.2,#f0e442,#f0e442,,0.2,-0.2,#009e73,#009e73,,0.2,0.2,#4A4A4A,#4A4A4A,,0.2,0,#cc79a7,#e69f00,,A3OLBTISKEB354,001,2020-12-11_20h46.45.987,change-localization,2020.1.2,Win32,60,,,0,45,45,45,1,,
,,0.0176,-0.0936,1,0,0,1.002,probe1,"[0,-0.1]",,,,,,47,probe3,0.05,0.05,0,-0.1,#009e73,#009e73,,-0.2,0.2,#f0e442,#f0e442,,0.2,0.2,#56b4e9,#cc79a7,,-0.1,0.2,#4A4A4A,#4A4A4A,,-0.1,0.1,#e69f00,#e69f00,,A3OLBTISKEB354,001,2020-12-11_20h46.45.987,change-localization,2020.1.2,Win32,60,,,0,46,46,46,1,,
,,-0.0864,0.1064,1,0,0,1.168,probe2,"[-0.1,0.1]",,,,,,48,probe4,0.05,0.05,0.2,-0.2,#cc79a7,#cc79a7,,-0.1,0.1,#009e73,#009e73,,0.1,-0.2,#f0e442,#f0e442,,-0.2,-0.1,#d55e00,#0072b2,,-0.1,0,#56b4e9,#56b4e9,,A3OLBTISKEB354,001,2020-12-11_20h46.45.987,change-localization,2020.1.2,Win32,60,,,0,47,47,47,1,,
,,-0.2096,-0.0008,1,0,0,1.872,probe2,"[-0.2,0]",,,,,,49,probe2,0.05,0.05,0,-0.2,#e69f00,#e69f00,,-0.2,0,#cc79a7,#0072b2,,-0.1,0.2,#f0e442,#f0e442,,0.1,0.2,#4A4A4A,#4A4A4A,,-0.1,-0.1,#56b4e9,#56b4e9,,A3OLBTISKEB354,001,2020-12-11_20h46.45.987,change-localization,2020.1.2,Win32,60,,,0,48,48,48,1,,
,,-0.0736,-0.0152,1,0,0,0.935,probe4,"[-0.1,0]",,,,,,50,probe4,0.05,0.05,0.2,0.1,#0072b2,#0072b2,,0.1,0.1,#cc79a7,#cc79a7,,0.1,-0.2,#56b4e9,#56b4e9,,-0.1,0,#009e73,#e69f00,,0,0.1,#d55e00,#d55e00,,A3OLBTISKEB354,001,2020-12-11_20h46.45.987,change-localization,2020.1.2,Win32,60,,,0,49,49,49,1,,
,,,,,,,,,,,,,,,,,,,,,,,,,,,,,,,,,,,,,,,,,,,,A3OLBTISKEB354,001,2020-12-11_20h46.45.987,change-localization,2020.1.2,Win32,60,,,,,,,,c,0.928
