key_resp.keys,key_resp.rt,mouse.x,mouse.y,mouse.leftButton,mouse.midButton,mouse.rightButton,mouse.time,mouse.clicked_name,mouse.clicked_pos,training.thisRepN,training.thisTrialN,training.thisN,training.thisIndex,training.ran,trial,answer,height,width,x1,y1,stim_color1,probe_color1,copy_color1,x2,y2,stim_color2,probe_color2,copy_color2,x3,y3,stim_color3,probe_color3,copy_color3,x4,y4,stim_color4,probe_color4,copy_color4,x5,y5,stim_color5,probe_color5,copy_color5,participant,session,date,expName,psychopyVersion,OS,frameRate,key_resp_2.keys,key_resp_2.rt,trials.thisRepN,trials.thisTrialN,trials.thisN,trials.thisIndex,trials.ran,completion_keys.keys,completion_keys.rt
c,8.63832,-0.104910714,-0.207819353,1,0,0,0.997455,probe3,"[-0.1,-0.2]",0,0,0,0,1,1,probe4,0.05,0.05,0.1,0.2,#0072b2,#0072b2,#0072b2,0.1,-0.1,#e69f00,#e69f00,#e69f00,-0.1,-0.2,#cc79a7,#cc79a7,#cc79a7,0.2,-0.1,#4A4A4A,#f0e442,#FFFFFF,0.2,0,#009e73,#009e73,#009e73,A3T5UAYFKJBVTA,001,2020-12-11_17h44.53.466,change-localization,2020.1.2,MacIntel,60,,,,,,,,,
,,0.192654488,-0.015835487,1,0,0,0.799095,probe1,"[0.2,0]",0,1,1,1,1,2,probe1,0.05,0.05,0.2,0,#d55e00,#009e73,#FFFFFF,0.2,-0.1,#e69f00,#e69f00,#e69f00,0.1,0,#4A4A4A,#4A4A4A,#4A4A4A,-0.1,0.1,#56b4e9,#56b4e9,#56b4e9,-0.1,0,#cc79a7,#cc79a7,#cc79a7,A3T5UAYFKJBVTA,001,2020-12-11_17h44.53.466,change-localization,2020.1.2,MacIntel,60,,,,,,,,,
,,-0.220453477,-0.195664944,1,0,0,0.89976,probe1,"[-0.2,-0.2]",0,2,2,2,1,3,probe1,0.05,0.05,-0.2,-0.2,#f0e442,#009e73,#FFFFFF,0.2,-0.1,#d55e00,#d55e00,#d55e00,-0.2,0,#4A4A4A,#4A4A4A,#4A4A4A,-0.1,-0.1,#0072b2,#0072b2,#0072b2,0,-0.1,#56b4e9,#56b4e9,#56b4e9,A3T5UAYFKJBVTA,001,2020-12-11_17h44.53.466,change-localization,2020.1.2,MacIntel,60,,,,,,,,,
,,0.192776864,-0.196443257,1,0,0,1.031215,probe3,"[0.2,-0.2]",0,3,3,3,1,4,probe1,0.05,0.05,0.2,0.2,#d55e00,#56b4e9,#FFFFFF,-0.2,0.2,#f0e442,#f0e442,#f0e442,0.2,-0.2,#0072b2,#0072b2,#0072b2,-0.2,0,#cc79a7,#cc79a7,#cc79a7,-0.2,0.1,#4A4A4A,#4A4A4A,#4A4A4A,A3T5UAYFKJBVTA,001,2020-12-11_17h44.53.466,change-localization,2020.1.2,MacIntel,60,,,,,,,,,
,,0.004713933,0.197529958,1,0,0,2.01661,probe2,"[0,0.2]",0,4,4,4,1,5,probe3,0.05,0.05,-0.2,0.1,#56b4e9,#56b4e9,#56b4e9,0,0.2,#009e73,#009e73,#009e73,0,0.1,#0072b2,#cc79a7,#FFFFFF,-0.1,-0.1,#4A4A4A,#4A4A4A,#4A4A4A,0.2,0,#f0e442,#f0e442,#f0e442,A3T5UAYFKJBVTA,001,2020-12-11_17h44.53.466,change-localization,2020.1.2,MacIntel,60,,,,,,,,,
,,0.091503172,-0.002555216,1,0,0,1.232445,probe5,"[0.1,0]",0,5,5,5,1,6,probe5,0.05,0.05,-0.1,0.1,#f0e442,#f0e442,#f0e442,0,0.1,#009e73,#009e73,#009e73,-0.2,0,#4A4A4A,#4A4A4A,#4A4A4A,0,-0.2,#d55e00,#d55e00,#d55e00,0.1,0,#cc79a7,#0072b2,#FFFFFF,A3T5UAYFKJBVTA,001,2020-12-11_17h44.53.466,change-localization,2020.1.2,MacIntel,60,,,,,,,,,
,,0.130492246,0.196947447,1,0,0,0.78292,probe2,"[0.1,0.2]",0,6,6,6,1,7,probe2,0.05,0.05,-0.2,-0.2,#4A4A4A,#4A4A4A,#4A4A4A,0.1,0.2,#0072b2,#d55e00,#FFFFFF,-0.1,-0.2,#f0e442,#f0e442,#f0e442,-0.2,0.2,#009e73,#009e73,#009e73,0.2,0.2,#e69f00,#e69f00,#e69f00,A3T5UAYFKJBVTA,001,2020-12-11_17h44.53.466,change-localization,2020.1.2,MacIntel,60,,,,,,,,,
,,0.107808584,-0.188718867,1,0,0,0.950565,probe1,"[0.1,-0.2]",0,7,7,7,1,8,probe1,0.05,0.05,0.1,-0.2,#009e73,#f0e442,#FFFFFF,-0.1,0,#d55e00,#d55e00,#d55e00,-0.1,0.1,#4A4A4A,#4A4A4A,#4A4A4A,-0.2,0,#cc79a7,#cc79a7,#cc79a7,0.2,0,#e69f00,#e69f00,#e69f00,A3T5UAYFKJBVTA,001,2020-12-11_17h44.53.466,change-localization,2020.1.2,MacIntel,60,,,,,,,,,
,,-0.201891447,0.102634516,1,0,0,1.36631,probe3,"[-0.2,0.1]",0,8,8,8,1,9,probe1,0.05,0.05,0.1,-0.2,#0072b2,#e69f00,#FFFFFF,-0.1,0.2,#f0e442,#f0e442,#f0e442,-0.2,0.1,#d55e00,#d55e00,#d55e00,0.2,0.2,#cc79a7,#cc79a7,#cc79a7,0.1,0.1,#56b4e9,#56b4e9,#56b4e9,A3T5UAYFKJBVTA,001,2020-12-11_17h44.53.466,change-localization,2020.1.2,MacIntel,60,,,,,,,,,
,,-0.092168899,-0.091273105,1,0,0,0.85083,probe1,"[-0.1,-0.1]",0,9,9,9,1,10,probe1,0.05,0.05,-0.1,-0.1,#4A4A4A,#f0e442,#FFFFFF,0,0.2,#cc79a7,#cc79a7,#cc79a7,0.2,-0.2,#e69f00,#e69f00,#e69f00,0.1,-0.2,#009e73,#009e73,#009e73,0.1,0.1,#d55e00,#d55e00,#d55e00,A3T5UAYFKJBVTA,001,2020-12-11_17h44.53.466,change-localization,2020.1.2,MacIntel,60,,,,,,,,,
,,-0.087342379,0.20019776,1,0,0,1.949265,probe2,"[-0.1,0.2]",,,,,,1,probe2,0.05,0.05,-0.2,0.2,#009e73,#009e73,,-0.1,0.2,#f0e442,#e69f00,,-0.1,0,#0072b2,#0072b2,,0,-0.2,#cc79a7,#cc79a7,,0,0.2,#d55e00,#d55e00,,A3T5UAYFKJBVTA,001,2020-12-11_17h44.53.466,change-localization,2020.1.2,MacIntel,60,c,5.509295,0,0,0,0,1,,
,,0.203242481,0.095541588,1,0,0,0.8653,probe2,"[0.2,0.1]",,,,,,2,probe5,0.05,0.05,0,0.1,#009e73,#009e73,,0.2,0.1,#4A4A4A,#4A4A4A,,-0.1,-0.1,#cc79a7,#cc79a7,,0.1,0.1,#d55e00,#d55e00,,0,-0.1,#56b4e9,#e69f00,,A3T5UAYFKJBVTA,001,2020-12-11_17h44.53.466,change-localization,2020.1.2,MacIntel,60,,,0,1,1,1,1,,
,,-0.090088503,0.221662555,1,0,0,0.76658,probe5,"[-0.1,0.2]",,,,,,3,probe4,0.05,0.05,0.1,-0.1,#56b4e9,#56b4e9,,0.2,0,#f0e442,#f0e442,,0.2,-0.1,#e69f00,#e69f00,,-0.1,0.1,#4A4A4A,#009e73,,-0.1,0.2,#d55e00,#d55e00,,A3T5UAYFKJBVTA,001,2020-12-11_17h44.53.466,change-localization,2020.1.2,MacIntel,60,,,0,2,2,2,1,,
,,-0.188341949,-0.003656602,1,0,0,0.950225,probe5,"[-0.2,0]",,,,,,4,probe5,0.05,0.05,0.2,0,#56b4e9,#56b4e9,,-0.2,-0.2,#cc79a7,#cc79a7,,0,0.2,#4A4A4A,#4A4A4A,,0.2,-0.2,#e69f00,#e69f00,,-0.2,0,#f0e442,#009e73,,A3T5UAYFKJBVTA,001,2020-12-11_17h44.53.466,change-localization,2020.1.2,MacIntel,60,,,0,3,3,3,1,,
,,-0.109781289,-0.101611451,1,0,0,0.899035,probe3,"[-0.1,-0.1]",,,,,,5,probe3,0.05,0.05,-0.2,0.1,#4A4A4A,#4A4A4A,,0.2,0.2,#009e73,#009e73,,-0.1,-0.1,#0072b2,#f0e442,,0.2,0,#cc79a7,#cc79a7,,0.1,0.1,#e69f00,#e69f00,,A3T5UAYFKJBVTA,001,2020-12-11_17h44.53.466,change-localization,2020.1.2,MacIntel,60,,,0,4,4,4,1,,
,,-0.192023026,-0.188860824,1,0,0,1.482455,probe5,"[-0.2,-0.2]",,,,,,6,probe4,0.05,0.05,-0.1,0.1,#d55e00,#d55e00,,-0.2,0.2,#0072b2,#0072b2,,0,-0.1,#e69f00,#e69f00,,0,0.2,#56b4e9,#4A4A4A,,-0.2,-0.2,#009e73,#009e73,,A3T5UAYFKJBVTA,001,2020-12-11_17h44.53.466,change-localization,2020.1.2,MacIntel,60,,,0,5,5,5,1,,
,,-0.18013295,0.195992912,1,0,0,1.066075,probe3,"[-0.2,0.2]",,,,,,7,probe4,0.05,0.05,0.2,-0.1,#56b4e9,#56b4e9,,-0.1,-0.1,#e69f00,#e69f00,,-0.2,0.2,#009e73,#009e73,,0.2,0.2,#cc79a7,#4A4A4A,,0.2,-0.2,#d55e00,#d55e00,,A3T5UAYFKJBVTA,001,2020-12-11_17h44.53.466,change-localization,2020.1.2,MacIntel,60,,,0,6,6,6,1,,
,,-0.205690006,0.195615993,1,0,0,0.89962,probe4,"[-0.2,0.2]",,,,,,8,probe4,0.05,0.05,-0.2,0.1,#e69f00,#e69f00,,0.1,0.2,#cc79a7,#cc79a7,,0.2,0.1,#4A4A4A,#4A4A4A,,-0.2,0.2,#56b4e9,#d55e00,,0.2,-0.1,#0072b2,#0072b2,,A3T5UAYFKJBVTA,001,2020-12-11_17h44.53.466,change-localization,2020.1.2,MacIntel,60,,,0,7,7,7,1,,
,,0.203810307,0.200750901,1,0,0,0.7513,probe5,"[0.2,0.2]",,,,,,9,probe5,0.05,0.05,-0.1,0,#4A4A4A,#4A4A4A,,0.1,0.1,#56b4e9,#56b4e9,,-0.2,0.1,#009e73,#009e73,,0.2,0.1,#cc79a7,#cc79a7,,0.2,0.2,#d55e00,#f0e442,,A3T5UAYFKJBVTA,001,2020-12-11_17h44.53.466,change-localization,2020.1.2,MacIntel,60,,,0,8,8,8,1,,
,,0.010906172,0.087078047,1,0,0,0.568155,probe3,"[0,0.1]",,,,,,10,probe3,0.05,0.05,0.2,0.2,#f0e442,#f0e442,,0.1,-0.1,#e69f00,#e69f00,,0,0.1,#cc79a7,#4A4A4A,,-0.2,0.1,#56b4e9,#56b4e9,,0.2,0,#0072b2,#0072b2,,A3T5UAYFKJBVTA,001,2020-12-11_17h44.53.466,change-localization,2020.1.2,MacIntel,60,,,0,9,9,9,1,,
,,0.102908639,-0.209561991,1,0,0,0.96514,probe5,"[0.1,-0.2]",,,,,,11,probe5,0.05,0.05,0.2,0.2,#4A4A4A,#4A4A4A,,0.1,0.2,#0072b2,#0072b2,,0.1,-0.1,#cc79a7,#cc79a7,,0,-0.2,#009e73,#009e73,,0.1,-0.2,#f0e442,#d55e00,,A3T5UAYFKJBVTA,001,2020-12-11_17h44.53.466,change-localization,2020.1.2,MacIntel,60,,,0,10,10,10,1,,
,,0.088243069,-0.003969886,1,0,0,0.950215,probe4,"[0.1,0]",,,,,,12,probe4,0.05,0.05,-0.1,-0.1,#009e73,#009e73,,-0.1,0,#56b4e9,#56b4e9,,-0.1,-0.2,#0072b2,#0072b2,,0.1,0,#d55e00,#f0e442,,0,-0.1,#cc79a7,#cc79a7,,A3T5UAYFKJBVTA,001,2020-12-11_17h44.53.466,change-localization,2020.1.2,MacIntel,60,,,0,11,11,11,1,,
,,-0.184709821,0.200628524,1,0,0,1.09915,probe4,"[-0.2,0.2]",,,,,,13,probe4,0.05,0.05,0,-0.1,#f0e442,#f0e442,,0.1,-0.1,#d55e00,#d55e00,,0.1,0.1,#0072b2,#0072b2,,-0.2,0.2,#cc79a7,#4A4A4A,,0.1,0.2,#009e73,#009e73,,A3T5UAYFKJBVTA,001,2020-12-11_17h44.53.466,change-localization,2020.1.2,MacIntel,60,,,0,12,12,12,1,,
,,0.086666862,0.188576911,1,0,0,0.7322,probe5,"[0.1,0.2]",,,,,,14,probe5,0.05,0.05,0,0.2,#cc79a7,#cc79a7,,0,-0.1,#4A4A4A,#4A4A4A,,-0.2,0,#56b4e9,#56b4e9,,0.1,0.1,#0072b2,#0072b2,,0.1,0.2,#009e73,#e69f00,,A3T5UAYFKJBVTA,001,2020-12-11_17h44.53.466,change-localization,2020.1.2,MacIntel,60,,,0,13,13,13,1,,
,,0.199497768,0.107323974,1,0,0,0.648555,probe3,"[0.2,0.1]",,,,,,15,probe3,0.05,0.05,0.2,0.2,#cc79a7,#cc79a7,,0,0.2,#56b4e9,#56b4e9,,0.2,0.1,#d55e00,#4A4A4A,,0.1,-0.1,#f0e442,#f0e442,,0.2,-0.1,#0072b2,#0072b2,,A3T5UAYFKJBVTA,001,2020-12-11_17h44.53.466,change-localization,2020.1.2,MacIntel,60,,,0,14,14,14,1,,
,,0.117211975,0.083827733,1,0,0,0.716535,probe3,"[0.1,0.1]",,,,,,16,probe3,0.05,0.05,-0.2,-0.1,#f0e442,#f0e442,,-0.2,0.2,#d55e00,#d55e00,,0.1,0.1,#009e73,#4A4A4A,,-0.2,0.1,#56b4e9,#56b4e9,,0,-0.1,#cc79a7,#cc79a7,,A3T5UAYFKJBVTA,001,2020-12-11_17h44.53.466,change-localization,2020.1.2,MacIntel,60,,,0,15,15,15,1,,
,,-0.002790179,0.104127506,1,0,0,1.41642,probe3,"[0,0.1]",,,,,,17,probe3,0.05,0.05,0.2,-0.1,#cc79a7,#cc79a7,,0,-0.2,#0072b2,#0072b2,,0,0.1,#4A4A4A,#e69f00,,-0.2,-0.1,#f0e442,#f0e442,,-0.1,-0.1,#009e73,#009e73,,A3T5UAYFKJBVTA,001,2020-12-11_17h44.53.466,change-localization,2020.1.2,MacIntel,60,,,0,16,16,16,1,,
,,0.09573739,-0.107779214,1,0,0,1.46741,probe4,"[0.1,-0.1]",,,,,,18,probe3,0.05,0.05,-0.1,0.1,#d55e00,#d55e00,,-0.1,0.2,#e69f00,#e69f00,,0.2,0,#009e73,#0072b2,,0.1,-0.1,#cc79a7,#cc79a7,,-0.2,0.2,#4A4A4A,#4A4A4A,,A3T5UAYFKJBVTA,001,2020-12-11_17h44.53.466,change-localization,2020.1.2,MacIntel,60,,,0,17,17,17,1,,
,,-0.094210135,0.206996985,1,0,0,1.116465,probe1,"[-0.1,0.2]",,,,,,19,probe3,0.05,0.05,-0.1,0.2,#0072b2,#0072b2,,0,-0.1,#4A4A4A,#4A4A4A,,-0.1,0.1,#e69f00,#009e73,,0.2,0.1,#d55e00,#d55e00,,-0.2,0.1,#cc79a7,#cc79a7,,A3T5UAYFKJBVTA,001,2020-12-11_17h44.53.466,change-localization,2020.1.2,MacIntel,60,,,0,18,18,18,1,,
,,-0.104719807,0.186031485,1,0,0,1.066665,probe2,"[-0.1,0.2]",,,,,,20,probe4,0.05,0.05,0.2,0,#56b4e9,#56b4e9,,-0.1,0.2,#009e73,#009e73,,-0.2,-0.2,#e69f00,#e69f00,,0,-0.1,#f0e442,#cc79a7,,-0.1,0,#4A4A4A,#4A4A4A,,A3T5UAYFKJBVTA,001,2020-12-11_17h44.53.466,change-localization,2020.1.2,MacIntel,60,,,0,19,19,19,1,,
,,0.195327185,0.009183114,1,0,0,0.867535,probe3,"[0.2,0]",,,,,,21,probe3,0.05,0.05,-0.1,0.1,#0072b2,#0072b2,,-0.1,0.2,#009e73,#009e73,,0.2,0,#56b4e9,#4A4A4A,,-0.2,0.2,#f0e442,#f0e442,,0.2,0.1,#d55e00,#d55e00,,A3T5UAYFKJBVTA,001,2020-12-11_17h44.53.466,change-localization,2020.1.2,MacIntel,60,,,0,20,20,20,1,,
,,-0.189619557,-0.090426261,1,0,0,0.783415,probe4,"[-0.2,-0.1]",,,,,,22,probe4,0.05,0.05,0.2,-0.1,#d55e00,#d55e00,,0.2,0,#56b4e9,#56b4e9,,0.1,-0.2,#cc79a7,#cc79a7,,-0.2,-0.1,#4A4A4A,#009e73,,0,-0.2,#e69f00,#e69f00,,A3T5UAYFKJBVTA,001,2020-12-11_17h44.53.466,change-localization,2020.1.2,MacIntel,60,,,0,21,21,21,1,,
,,-0.196105498,-0.191993656,1,0,0,0.800075,probe4,"[-0.2,-0.2]",,,,,,23,probe4,0.05,0.05,0.1,0.1,#56b4e9,#56b4e9,,-0.2,-0.1,#0072b2,#0072b2,,0.2,0,#d55e00,#d55e00,,-0.2,-0.2,#cc79a7,#009e73,,0.1,-0.2,#4A4A4A,#4A4A4A,,A3T5UAYFKJBVTA,001,2020-12-11_17h44.53.466,change-localization,2020.1.2,MacIntel,60,,,0,22,22,22,1,,
,,0.194950266,0.198450227,1,0,0,1.08267,probe2,"[0.2,0.2]",,,,,,24,probe2,0.05,0.05,-0.1,-0.2,#4A4A4A,#4A4A4A,,0.2,0.2,#d55e00,#e69f00,,0.1,-0.1,#f0e442,#f0e442,,0.1,0.1,#56b4e9,#56b4e9,,-0.2,0.1,#cc79a7,#cc79a7,,A3T5UAYFKJBVTA,001,2020-12-11_17h44.53.466,change-localization,2020.1.2,MacIntel,60,,,0,23,23,23,1,,
,,0.208582981,0.002192982,1,0,0,0.86762,probe3,"[0.2,0]",,,,,,25,probe3,0.05,0.05,-0.2,-0.2,#f0e442,#f0e442,,-0.1,-0.1,#4A4A4A,#4A4A4A,,0.2,0,#d55e00,#cc79a7,,0,0.2,#0072b2,#0072b2,,-0.2,0.1,#009e73,#009e73,,A3T5UAYFKJBVTA,001,2020-12-11_17h44.53.466,change-localization,2020.1.2,MacIntel,60,,,0,24,24,24,1,,
,,-0.099114975,-0.195425086,1,0,0,0.83343,probe3,"[-0.1,-0.2]",,,,,,26,probe3,0.05,0.05,0.1,-0.1,#e69f00,#e69f00,,-0.2,0,#56b4e9,#56b4e9,,-0.1,-0.2,#009e73,#d55e00,,-0.2,-0.1,#4A4A4A,#4A4A4A,,0.1,0,#cc79a7,#cc79a7,,A3T5UAYFKJBVTA,001,2020-12-11_17h44.53.466,change-localization,2020.1.2,MacIntel,60,,,0,25,25,25,1,,
,,-0.105018405,-0.201534109,1,0,0,0.86603,probe1,"[-0.1,-0.2]",,,,,,27,probe5,0.05,0.05,-0.1,-0.2,#009e73,#009e73,,0.2,0,#cc79a7,#cc79a7,,-0.1,-0.1,#e69f00,#e69f00,,0.1,0.1,#d55e00,#d55e00,,-0.2,-0.1,#4A4A4A,#0072b2,,A3T5UAYFKJBVTA,001,2020-12-11_17h44.53.466,change-localization,2020.1.2,MacIntel,60,,,0,26,26,26,1,,
,,0.009932057,-0.199830631,1,0,0,1.33144,probe3,"[0,-0.2]",,,,,,28,probe5,0.05,0.05,-0.1,0.2,#009e73,#009e73,,-0.2,0.1,#56b4e9,#56b4e9,,0,-0.2,#d55e00,#d55e00,,0.1,0,#0072b2,#0072b2,,0.1,0.1,#f0e442,#e69f00,,A3T5UAYFKJBVTA,001,2020-12-11_17h44.53.466,change-localization,2020.1.2,MacIntel,60,,,0,27,27,27,1,,
,,0.110535127,0.206957824,1,0,0,0.901115,probe4,"[0.1,0.2]",,,,,,29,probe1,0.05,0.05,0.1,-0.1,#4A4A4A,#56b4e9,,-0.2,0.2,#e69f00,#e69f00,,-0.1,-0.1,#f0e442,#f0e442,,0.1,0.2,#0072b2,#0072b2,,-0.1,-0.2,#cc79a7,#cc79a7,,A3T5UAYFKJBVTA,001,2020-12-11_17h44.53.466,change-localization,2020.1.2,MacIntel,60,,,0,28,28,28,1,,
,,0.00388667,-0.188425164,1,0,0,1.53258,probe3,"[0,-0.2]",,,,,,30,probe2,0.05,0.05,0.1,0.2,#f0e442,#f0e442,,-0.1,-0.2,#d55e00,#4A4A4A,,0,-0.2,#cc79a7,#cc79a7,,0.1,-0.2,#0072b2,#0072b2,,-0.2,0,#009e73,#009e73,,A3T5UAYFKJBVTA,001,2020-12-11_17h44.53.466,change-localization,2020.1.2,MacIntel,60,,,0,29,29,29,1,,
,,-0.09867442,-0.108503681,1,0,0,0.99945,probe5,"[-0.1,-0.1]",,,,,,31,probe5,0.05,0.05,0,-0.2,#d55e00,#d55e00,,0.1,0,#e69f00,#e69f00,,0.1,0.2,#f0e442,#f0e442,,-0.2,-0.1,#cc79a7,#cc79a7,,-0.1,-0.1,#009e73,#4A4A4A,,A3T5UAYFKJBVTA,001,2020-12-11_17h44.53.466,change-localization,2020.1.2,MacIntel,60,,,0,30,30,30,1,,
,,0.22216185,0.212748669,1,0,0,0.867175,probe1,"[0.2,0.2]",,,,,,32,probe3,0.05,0.05,0.2,0.2,#56b4e9,#56b4e9,,-0.1,-0.1,#009e73,#009e73,,0.2,0.1,#cc79a7,#0072b2,,-0.2,0.1,#4A4A4A,#4A4A4A,,-0.2,-0.1,#f0e442,#f0e442,,A3T5UAYFKJBVTA,001,2020-12-11_17h44.53.466,change-localization,2020.1.2,MacIntel,60,,,0,31,31,31,1,,
,,-0.109512061,0.110398065,1,0,0,0.733125,probe3,"[-0.1,0.1]",,,,,,33,probe3,0.05,0.05,-0.1,-0.1,#0072b2,#0072b2,,0.1,0.1,#cc79a7,#cc79a7,,-0.1,0.1,#f0e442,#009e73,,0,-0.2,#56b4e9,#56b4e9,,0.1,0.2,#e69f00,#e69f00,,A3T5UAYFKJBVTA,001,2020-12-11_17h44.53.466,change-localization,2020.1.2,MacIntel,60,,,0,32,32,32,1,,
,,-0.194049577,-0.003881775,1,0,0,0.9013,probe5,"[-0.2,0]",,,,,,34,probe5,0.05,0.05,0.2,0.1,#e69f00,#e69f00,,-0.2,0.1,#cc79a7,#cc79a7,,0.1,-0.2,#0072b2,#0072b2,,0.2,-0.2,#d55e00,#d55e00,,-0.2,0,#56b4e9,#009e73,,A3T5UAYFKJBVTA,001,2020-12-11_17h44.53.466,change-localization,2020.1.2,MacIntel,60,,,0,33,33,33,1,,
,,0.18800419,-0.006402726,1,0,0,2.099985,probe1,"[0.2,0]",,,,,,35,probe2,0.05,0.05,0.2,0,#56b4e9,#56b4e9,,0.2,-0.1,#e69f00,#009e73,,0.1,-0.1,#f0e442,#f0e442,,0,0.2,#d55e00,#d55e00,,0.1,0.2,#cc79a7,#cc79a7,,A3T5UAYFKJBVTA,001,2020-12-11_17h44.53.466,change-localization,2020.1.2,MacIntel,60,,,0,34,34,34,1,,
,,-0.199566299,-0.100598175,1,0,0,0.882115,probe3,"[-0.2,-0.1]",,,,,,36,probe3,0.05,0.05,0,0.1,#4A4A4A,#4A4A4A,,0.2,0.1,#009e73,#009e73,,-0.2,-0.1,#f0e442,#56b4e9,,-0.1,-0.1,#e69f00,#e69f00,,0.1,0,#0072b2,#0072b2,,A3T5UAYFKJBVTA,001,2020-12-11_17h44.53.466,change-localization,2020.1.2,MacIntel,60,,,0,35,35,35,1,,
,,0.100813557,0.007181039,1,0,0,0.950455,probe5,"[0.1,0]",,,,,,37,probe5,0.05,0.05,-0.2,0.1,#e69f00,#e69f00,,0.1,0.1,#0072b2,#0072b2,,-0.2,0,#d55e00,#d55e00,,-0.1,0.2,#cc79a7,#cc79a7,,0.1,0,#009e73,#f0e442,,A3T5UAYFKJBVTA,001,2020-12-11_17h44.53.466,change-localization,2020.1.2,MacIntel,60,,,0,36,36,36,1,,
,,0.194088737,-0.21774162,1,0,0,1.25068,probe1,"[0.2,-0.2]",,,,,,38,probe4,0.05,0.05,0.2,-0.2,#4A4A4A,#4A4A4A,,0.2,0,#0072b2,#0072b2,,0.1,-0.1,#e69f00,#e69f00,,0.1,0,#d55e00,#cc79a7,,0,-0.1,#009e73,#009e73,,A3T5UAYFKJBVTA,001,2020-12-11_17h44.53.466,change-localization,2020.1.2,MacIntel,60,,,0,37,37,37,1,,
,,-0.210330514,0.188748238,1,0,0,0.932975,probe4,"[-0.2,0.2]",,,,,,39,probe4,0.05,0.05,0.1,-0.1,#e69f00,#e69f00,,-0.2,-0.1,#cc79a7,#cc79a7,,0.2,0.1,#d55e00,#d55e00,,-0.2,0.2,#56b4e9,#f0e442,,0,-0.1,#0072b2,#0072b2,,A3T5UAYFKJBVTA,001,2020-12-11_17h44.53.466,change-localization,2020.1.2,MacIntel,60,,,0,38,38,38,1,,
,,-0.174097353,0.091522752,1,0,0,0.700165,probe1,"[-0.2,0.1]",,,,,,40,probe1,0.05,0.05,-0.2,0.1,#4A4A4A,#d55e00,,0.2,0.2,#009e73,#009e73,,-0.1,-0.1,#cc79a7,#cc79a7,,0.2,-0.2,#e69f00,#e69f00,,0.1,-0.1,#56b4e9,#56b4e9,,A3T5UAYFKJBVTA,001,2020-12-11_17h44.53.466,change-localization,2020.1.2,MacIntel,60,,,0,39,39,39,1,,
,,0.00827753,-0.203311012,1,0,0,1.217115,probe5,"[0,-0.2]",,,,,,41,probe4,0.05,0.05,0.2,0.1,#009e73,#009e73,,-0.2,-0.1,#0072b2,#0072b2,,-0.2,-0.2,#56b4e9,#56b4e9,,-0.1,0,#f0e442,#cc79a7,,0,-0.2,#d55e00,#d55e00,,A3T5UAYFKJBVTA,001,2020-12-11_17h44.53.466,change-localization,2020.1.2,MacIntel,60,,,0,40,40,40,1,,
,,0.111122533,0.087596922,1,0,0,1.532885,probe3,"[0.1,0.1]",,,,,,42,probe4,0.05,0.05,-0.1,-0.2,#009e73,#009e73,,-0.1,0.1,#cc79a7,#cc79a7,,0.1,0.1,#56b4e9,#56b4e9,,0,-0.2,#e69f00,#d55e00,,-0.1,0,#0072b2,#0072b2,,A3T5UAYFKJBVTA,001,2020-12-11_17h44.53.466,change-localization,2020.1.2,MacIntel,60,,,0,41,41,41,1,,
,,0.187881814,-0.095600329,1,0,0,2.51492,probe1,"[0.2,-0.1]",,,,,,43,probe1,0.05,0.05,0.2,-0.1,#e69f00,#009e73,,0.1,0,#cc79a7,#cc79a7,,-0.2,-0.2,#f0e442,#f0e442,,0.2,-0.2,#56b4e9,#56b4e9,,-0.2,0.1,#4A4A4A,#4A4A4A,,A3T5UAYFKJBVTA,001,2020-12-11_17h44.53.466,change-localization,2020.1.2,MacIntel,60,,,0,42,42,42,1,,
,,-0.105782033,-0.087004621,1,0,0,1.315985,probe5,"[-0.1,-0.1]",,,,,,44,probe1,0.05,0.05,-0.1,0.2,#56b4e9,#e69f00,,0.2,0.1,#4A4A4A,#4A4A4A,,0.1,0,#cc79a7,#cc79a7,,0.1,0.2,#f0e442,#f0e442,,-0.1,-0.1,#d55e00,#d55e00,,A3T5UAYFKJBVTA,001,2020-12-11_17h44.53.466,change-localization,2020.1.2,MacIntel,60,,,0,43,43,43,1,,
,,-0.091366111,0.102864583,1,0,0,0.58182,probe3,"[-0.1,0.1]",,,,,,45,probe3,0.05,0.05,-0.2,0.2,#0072b2,#0072b2,,-0.2,-0.1,#56b4e9,#56b4e9,,-0.1,0.1,#f0e442,#e69f00,,-0.1,0.2,#d55e00,#d55e00,,0,-0.2,#cc79a7,#cc79a7,,A3T5UAYFKJBVTA,001,2020-12-11_17h44.53.466,change-localization,2020.1.2,MacIntel,60,,,0,44,44,44,1,,
,,0.205440359,0.000323073,1,0,0,1.08304,probe5,"[0.2,0]",,,,,,46,probe5,0.05,0.05,0.2,0.1,#0072b2,#0072b2,,0.1,0.2,#f0e442,#f0e442,,0.2,-0.2,#009e73,#009e73,,0.2,0.2,#4A4A4A,#4A4A4A,,0.2,0,#cc79a7,#e69f00,,A3T5UAYFKJBVTA,001,2020-12-11_17h44.53.466,change-localization,2020.1.2,MacIntel,60,,,0,45,45,45,1,,
,,0.194299225,0.185639881,1,0,0,0.95096,probe3,"[0.2,0.2]",,,,,,47,probe3,0.05,0.05,0,-0.1,#009e73,#009e73,,-0.2,0.2,#f0e442,#f0e442,,0.2,0.2,#56b4e9,#cc79a7,,-0.1,0.2,#4A4A4A,#4A4A4A,,-0.1,0.1,#e69f00,#e69f00,,A3T5UAYFKJBVTA,001,2020-12-11_17h44.53.466,change-localization,2020.1.2,MacIntel,60,,,0,46,46,46,1,,
,,-0.108934445,-0.004067787,1,0,0,1.70089,probe5,"[-0.1,0]",,,,,,48,probe4,0.05,0.05,0.2,-0.2,#cc79a7,#cc79a7,,-0.1,0.1,#009e73,#009e73,,0.1,-0.2,#f0e442,#f0e442,,-0.2,-0.1,#d55e00,#0072b2,,-0.1,0,#56b4e9,#56b4e9,,A3T5UAYFKJBVTA,001,2020-12-11_17h44.53.466,change-localization,2020.1.2,MacIntel,60,,,0,47,47,47,1,,
,,-0.191185973,-0.009907581,1,0,0,0.73242,probe2,"[-0.2,0]",,,,,,49,probe2,0.05,0.05,0,-0.2,#e69f00,#e69f00,,-0.2,0,#cc79a7,#0072b2,,-0.1,0.2,#f0e442,#f0e442,,0.1,0.2,#4A4A4A,#4A4A4A,,-0.1,-0.1,#56b4e9,#56b4e9,,A3T5UAYFKJBVTA,001,2020-12-11_17h44.53.466,change-localization,2020.1.2,MacIntel,60,,,0,48,48,48,1,,
,,-0.098282816,0.020216557,1,0,0,0.74985,probe4,"[-0.1,0]",,,,,,50,probe4,0.05,0.05,0.2,0.1,#0072b2,#0072b2,,0.1,0.1,#cc79a7,#cc79a7,,0.1,-0.2,#56b4e9,#56b4e9,,-0.1,0,#009e73,#e69f00,,0,0.1,#d55e00,#d55e00,,A3T5UAYFKJBVTA,001,2020-12-11_17h44.53.466,change-localization,2020.1.2,MacIntel,60,,,0,49,49,49,1,,
,,,,,,,,,,,,,,,,,,,,,,,,,,,,,,,,,,,,,,,,,,,,A3T5UAYFKJBVTA,001,2020-12-11_17h44.53.466,change-localization,2020.1.2,MacIntel,60,,,,,,,,c,7.45413
