key_resp.keys,key_resp.rt,mouse.x,mouse.y,mouse.leftButton,mouse.midButton,mouse.rightButton,mouse.time,mouse.clicked_name,mouse.clicked_pos,training.thisRepN,training.thisTrialN,training.thisN,training.thisIndex,training.ran,trial,answer,height,width,x1,y1,stim_color1,probe_color1,copy_color1,x2,y2,stim_color2,probe_color2,copy_color2,x3,y3,stim_color3,probe_color3,copy_color3,x4,y4,stim_color4,probe_color4,copy_color4,x5,y5,stim_color5,probe_color5,copy_color5,participant,session,date,expName,psychopyVersion,OS,frameRate,key_resp_2.keys,key_resp_2.rt,trials.thisRepN,trials.thisTrialN,trials.thisN,trials.thisIndex,trials.ran,completion_keys.keys,completion_keys.rt
c,4.6846,0.198148164,-0.001851859,1,0,0,8.197265,probe5,"[0.2,0]",0,0,0,0,1,1,probe4,0.05,0.05,0.1,0.2,#0072b2,#0072b2,#0072b2,0.1,-0.1,#e69f00,#e69f00,#e69f00,-0.1,-0.2,#cc79a7,#cc79a7,#cc79a7,0.2,-0.1,#4A4A4A,#f0e442,#FFFFFF,0.2,0,#009e73,#009e73,#009e73,A3VDG4N48AVYGQ,001,2020-12-11_20h36.40.613,change-localization,2020.1.2,Win32,60,,,,,,,,,
,,0.193518535,-0.019444452,1,0,0,1.766195,probe1,"[0.2,0]",0,1,1,1,1,2,probe1,0.05,0.05,0.2,0,#d55e00,#009e73,#FFFFFF,0.2,-0.1,#e69f00,#e69f00,#e69f00,0.1,0,#4A4A4A,#4A4A4A,#4A4A4A,-0.1,0.1,#56b4e9,#56b4e9,#56b4e9,-0.1,0,#cc79a7,#cc79a7,#cc79a7,A3VDG4N48AVYGQ,001,2020-12-11_20h36.40.613,change-localization,2020.1.2,Win32,60,,,,,,,,,
,,0.197222238,-0.11574075,1,0,0,1.64937,probe2,"[0.2,-0.1]",0,2,2,2,1,3,probe1,0.05,0.05,-0.2,-0.2,#f0e442,#009e73,#FFFFFF,0.2,-0.1,#d55e00,#d55e00,#d55e00,-0.2,0,#4A4A4A,#4A4A4A,#4A4A4A,-0.1,-0.1,#0072b2,#0072b2,#0072b2,0,-0.1,#56b4e9,#56b4e9,#56b4e9,A3VDG4N48AVYGQ,001,2020-12-11_20h36.40.613,change-localization,2020.1.2,Win32,60,,,,,,,,,
,,-0.215740674,0.093518512,1,0,0,3.99885,probe5,"[-0.2,0.1]",0,3,3,3,1,4,probe1,0.05,0.05,0.2,0.2,#d55e00,#56b4e9,#FFFFFF,-0.2,0.2,#f0e442,#f0e442,#f0e442,0.2,-0.2,#0072b2,#0072b2,#0072b2,-0.2,0,#cc79a7,#cc79a7,#cc79a7,-0.2,0.1,#4A4A4A,#4A4A4A,#4A4A4A,A3VDG4N48AVYGQ,001,2020-12-11_20h36.40.613,change-localization,2020.1.2,Win32,60,,,,,,,,,
,,-0.023148135,0.187037032,1,0,0,1.91579,probe2,"[0,0.2]",0,4,4,4,1,5,probe3,0.05,0.05,-0.2,0.1,#56b4e9,#56b4e9,#56b4e9,0,0.2,#009e73,#009e73,#009e73,0,0.1,#0072b2,#cc79a7,#FFFFFF,-0.1,-0.1,#4A4A4A,#4A4A4A,#4A4A4A,0.2,0,#f0e442,#f0e442,#f0e442,A3VDG4N48AVYGQ,001,2020-12-11_20h36.40.613,change-localization,2020.1.2,Win32,60,,,,,,,,,
,,0.089814829,0.015740734,1,0,0,2.399055,probe5,"[0.1,0]",0,5,5,5,1,6,probe5,0.05,0.05,-0.1,0.1,#f0e442,#f0e442,#f0e442,0,0.1,#009e73,#009e73,#009e73,-0.2,0,#4A4A4A,#4A4A4A,#4A4A4A,0,-0.2,#d55e00,#d55e00,#d55e00,0.1,0,#cc79a7,#0072b2,#FFFFFF,A3VDG4N48AVYGQ,001,2020-12-11_20h36.40.613,change-localization,2020.1.2,Win32,60,,,,,,,,,
,,-0.121296285,-0.208333344,1,0,0,11.912765,probe3,"[-0.1,-0.2]",0,6,6,6,1,7,probe2,0.05,0.05,-0.2,-0.2,#4A4A4A,#4A4A4A,#4A4A4A,0.1,0.2,#0072b2,#d55e00,#FFFFFF,-0.1,-0.2,#f0e442,#f0e442,#f0e442,-0.2,0.2,#009e73,#009e73,#009e73,0.2,0.2,#e69f00,#e69f00,#e69f00,A3VDG4N48AVYGQ,001,2020-12-11_20h36.40.613,change-localization,2020.1.2,Win32,60,,,,,,,,,
,,0.187962979,0.022222215,1,0,0,2.09902,probe5,"[0.2,0]",0,7,7,7,1,8,probe1,0.05,0.05,0.1,-0.2,#009e73,#f0e442,#FFFFFF,-0.1,0,#d55e00,#d55e00,#d55e00,-0.1,0.1,#4A4A4A,#4A4A4A,#4A4A4A,-0.2,0,#cc79a7,#cc79a7,#cc79a7,0.2,0,#e69f00,#e69f00,#e69f00,A3VDG4N48AVYGQ,001,2020-12-11_20h36.40.613,change-localization,2020.1.2,Win32,60,,,,,,,,,
,,0.176851868,0.188888856,1,0,0,1.63249,probe4,"[0.2,0.2]",0,8,8,8,1,9,probe1,0.05,0.05,0.1,-0.2,#0072b2,#e69f00,#FFFFFF,-0.1,0.2,#f0e442,#f0e442,#f0e442,-0.2,0.1,#d55e00,#d55e00,#d55e00,0.2,0.2,#cc79a7,#cc79a7,#cc79a7,0.1,0.1,#56b4e9,#56b4e9,#56b4e9,A3VDG4N48AVYGQ,001,2020-12-11_20h36.40.613,change-localization,2020.1.2,Win32,60,,,,,,,,,
,,-0.130555544,-0.108333399,1,0,0,2.698865,probe1,"[-0.1,-0.1]",0,9,9,9,1,10,probe1,0.05,0.05,-0.1,-0.1,#4A4A4A,#f0e442,#FFFFFF,0,0.2,#cc79a7,#cc79a7,#cc79a7,0.2,-0.2,#e69f00,#e69f00,#e69f00,0.1,-0.2,#009e73,#009e73,#009e73,0.1,0.1,#d55e00,#d55e00,#d55e00,A3VDG4N48AVYGQ,001,2020-12-11_20h36.40.613,change-localization,2020.1.2,Win32,60,,,,,,,,,
,,-0.10185184,0.182407403,1,0,0,1.399175,probe2,"[-0.1,0.2]",,,,,,1,probe2,0.05,0.05,-0.2,0.2,#009e73,#009e73,,-0.1,0.2,#f0e442,#e69f00,,-0.1,0,#0072b2,#0072b2,,0,-0.2,#cc79a7,#cc79a7,,0,0.2,#d55e00,#d55e00,,A3VDG4N48AVYGQ,001,2020-12-11_20h36.40.613,change-localization,2020.1.2,Win32,60,c,9.92278,0,0,0,0,1,,
,,0.015740811,-0.106481491,1,0,0,1.032865,probe5,"[0,-0.1]",,,,,,2,probe5,0.05,0.05,0,0.1,#009e73,#009e73,,0.2,0.1,#4A4A4A,#4A4A4A,,-0.1,-0.1,#cc79a7,#cc79a7,,0.1,0.1,#d55e00,#d55e00,,0,-0.1,#56b4e9,#e69f00,,A3VDG4N48AVYGQ,001,2020-12-11_20h36.40.613,change-localization,2020.1.2,Win32,60,,,0,1,1,1,1,,
,,-0.098148136,0.102777772,1,0,0,2.132525,probe4,"[-0.1,0.1]",,,,,,3,probe4,0.05,0.05,0.1,-0.1,#56b4e9,#56b4e9,,0.2,0,#f0e442,#f0e442,,0.2,-0.1,#e69f00,#e69f00,,-0.1,0.1,#4A4A4A,#009e73,,-0.1,0.2,#d55e00,#d55e00,,A3VDG4N48AVYGQ,001,2020-12-11_20h36.40.613,change-localization,2020.1.2,Win32,60,,,0,2,2,2,1,,
,,0.200000016,-0.20000001,1,0,0,8.0474,probe4,"[0.2,-0.2]",,,,,,4,probe5,0.05,0.05,0.2,0,#56b4e9,#56b4e9,,-0.2,-0.2,#cc79a7,#cc79a7,,0,0.2,#4A4A4A,#4A4A4A,,0.2,-0.2,#e69f00,#e69f00,,-0.2,0,#f0e442,#009e73,,A3VDG4N48AVYGQ,001,2020-12-11_20h36.40.613,change-localization,2020.1.2,Win32,60,,,0,3,3,3,1,,
,,-0.074999988,-0.109259268,1,0,0,1.099545,probe3,"[-0.1,-0.1]",,,,,,5,probe3,0.05,0.05,-0.2,0.1,#4A4A4A,#4A4A4A,,0.2,0.2,#009e73,#009e73,,-0.1,-0.1,#0072b2,#f0e442,,0.2,0,#cc79a7,#cc79a7,,0.1,0.1,#e69f00,#e69f00,,A3VDG4N48AVYGQ,001,2020-12-11_20h36.40.613,change-localization,2020.1.2,Win32,60,,,0,4,4,4,1,,
,,-0.10648147,0.086111105,1,0,0,2.21602,probe1,"[-0.1,0.1]",,,,,,6,probe4,0.05,0.05,-0.1,0.1,#d55e00,#d55e00,,-0.2,0.2,#0072b2,#0072b2,,0,-0.1,#e69f00,#e69f00,,0,0.2,#56b4e9,#4A4A4A,,-0.2,-0.2,#009e73,#009e73,,A3VDG4N48AVYGQ,001,2020-12-11_20h36.40.613,change-localization,2020.1.2,Win32,60,,,0,5,5,5,1,,
,,0.215740757,0.178703699,1,0,0,1.98244,probe4,"[0.2,0.2]",,,,,,7,probe4,0.05,0.05,0.2,-0.1,#56b4e9,#56b4e9,,-0.1,-0.1,#e69f00,#e69f00,,-0.2,0.2,#009e73,#009e73,,0.2,0.2,#cc79a7,#4A4A4A,,0.2,-0.2,#d55e00,#d55e00,,A3VDG4N48AVYGQ,001,2020-12-11_20h36.40.613,change-localization,2020.1.2,Win32,60,,,0,6,6,6,1,,
,,-0.186111101,0.187037032,1,0,0,1.966105,probe4,"[-0.2,0.2]",,,,,,8,probe4,0.05,0.05,-0.2,0.1,#e69f00,#e69f00,,0.1,0.2,#cc79a7,#cc79a7,,0.2,0.1,#4A4A4A,#4A4A4A,,-0.2,0.2,#56b4e9,#d55e00,,0.2,-0.1,#0072b2,#0072b2,,A3VDG4N48AVYGQ,001,2020-12-11_20h36.40.613,change-localization,2020.1.2,Win32,60,,,0,7,7,7,1,,
,,0.217592609,0.203703699,1,0,0,1.14929,probe5,"[0.2,0.2]",,,,,,9,probe5,0.05,0.05,-0.1,0,#4A4A4A,#4A4A4A,,0.1,0.1,#56b4e9,#56b4e9,,-0.2,0.1,#009e73,#009e73,,0.2,0.1,#cc79a7,#cc79a7,,0.2,0.2,#d55e00,#f0e442,,A3VDG4N48AVYGQ,001,2020-12-11_20h36.40.613,change-localization,2020.1.2,Win32,60,,,0,8,8,8,1,,
,,0.186111127,-0.012962971,1,0,0,1.283005,probe5,"[0.2,0]",,,,,,10,probe3,0.05,0.05,0.2,0.2,#f0e442,#f0e442,,0.1,-0.1,#e69f00,#e69f00,,0,0.1,#cc79a7,#4A4A4A,,-0.2,0.1,#56b4e9,#56b4e9,,0.2,0,#0072b2,#0072b2,,A3VDG4N48AVYGQ,001,2020-12-11_20h36.40.613,change-localization,2020.1.2,Win32,60,,,0,9,9,9,1,,
,,-0.016666597,-0.20000001,1,0,0,1.79932,probe4,"[0,-0.2]",,,,,,11,probe5,0.05,0.05,0.2,0.2,#4A4A4A,#4A4A4A,,0.1,0.2,#0072b2,#0072b2,,0.1,-0.1,#cc79a7,#cc79a7,,0,-0.2,#009e73,#009e73,,0.1,-0.2,#f0e442,#d55e00,,A3VDG4N48AVYGQ,001,2020-12-11_20h36.40.613,change-localization,2020.1.2,Win32,60,,,0,10,10,10,1,,
,,0.093518533,0.017592585,1,0,0,1.532765,probe4,"[0.1,0]",,,,,,12,probe4,0.05,0.05,-0.1,-0.1,#009e73,#009e73,,-0.1,0,#56b4e9,#56b4e9,,-0.1,-0.2,#0072b2,#0072b2,,0.1,0,#d55e00,#f0e442,,0,-0.1,#cc79a7,#cc79a7,,A3VDG4N48AVYGQ,001,2020-12-11_20h36.40.613,change-localization,2020.1.2,Win32,60,,,0,11,11,11,1,,
,,0.099074089,0.193518486,1,0,0,1.26611,probe5,"[0.1,0.2]",,,,,,13,probe4,0.05,0.05,0,-0.1,#f0e442,#f0e442,,0.1,-0.1,#d55e00,#d55e00,,0.1,0.1,#0072b2,#0072b2,,-0.2,0.2,#cc79a7,#4A4A4A,,0.1,0.2,#009e73,#009e73,,A3VDG4N48AVYGQ,001,2020-12-11_20h36.40.613,change-localization,2020.1.2,Win32,60,,,0,12,12,12,1,,
,,0.095370385,0.18518518,1,0,0,0.81643,probe5,"[0.1,0.2]",,,,,,14,probe5,0.05,0.05,0,0.2,#cc79a7,#cc79a7,,0,-0.1,#4A4A4A,#4A4A4A,,-0.2,0,#56b4e9,#56b4e9,,0.1,0.1,#0072b2,#0072b2,,0.1,0.2,#009e73,#e69f00,,A3VDG4N48AVYGQ,001,2020-12-11_20h36.40.613,change-localization,2020.1.2,Win32,60,,,0,13,13,13,1,,
,,0.197222238,0.07592592,1,0,0,0.883275,probe3,"[0.2,0.1]",,,,,,15,probe3,0.05,0.05,0.2,0.2,#cc79a7,#cc79a7,,0,0.2,#56b4e9,#56b4e9,,0.2,0.1,#d55e00,#4A4A4A,,0.1,-0.1,#f0e442,#f0e442,,0.2,-0.1,#0072b2,#0072b2,,A3VDG4N48AVYGQ,001,2020-12-11_20h36.40.613,change-localization,2020.1.2,Win32,60,,,0,14,14,14,1,,
,,0.101851867,0.112037031,1,0,0,0.849615,probe3,"[0.1,0.1]",,,,,,16,probe3,0.05,0.05,-0.2,-0.1,#f0e442,#f0e442,,-0.2,0.2,#d55e00,#d55e00,,0.1,0.1,#009e73,#4A4A4A,,-0.2,0.1,#56b4e9,#56b4e9,,0,-0.1,#cc79a7,#cc79a7,,A3VDG4N48AVYGQ,001,2020-12-11_20h36.40.613,change-localization,2020.1.2,Win32,60,,,0,15,15,15,1,,
,,-0.006481468,0.103703698,1,0,0,9.930565,probe3,"[0,0.1]",,,,,,17,probe3,0.05,0.05,0.2,-0.1,#cc79a7,#cc79a7,,0,-0.2,#0072b2,#0072b2,,0,0.1,#4A4A4A,#e69f00,,-0.2,-0.1,#f0e442,#f0e442,,-0.1,-0.1,#009e73,#009e73,,A3VDG4N48AVYGQ,001,2020-12-11_20h36.40.613,change-localization,2020.1.2,Win32,60,,,0,16,16,16,1,,
,,-0.074074062,0.193518486,1,0,0,14.64522,probe2,"[-0.1,0.2]",,,,,,18,probe3,0.05,0.05,-0.1,0.1,#d55e00,#d55e00,,-0.1,0.2,#e69f00,#e69f00,,0.2,0,#009e73,#0072b2,,0.1,-0.1,#cc79a7,#cc79a7,,-0.2,0.2,#4A4A4A,#4A4A4A,,A3VDG4N48AVYGQ,001,2020-12-11_20h36.40.613,change-localization,2020.1.2,Win32,60,,,0,17,17,17,1,,
,,-0.086111043,0.092592587,1,0,0,1.34955,probe3,"[-0.1,0.1]",,,,,,19,probe3,0.05,0.05,-0.1,0.2,#0072b2,#0072b2,,0,-0.1,#4A4A4A,#4A4A4A,,-0.1,0.1,#e69f00,#009e73,,0.2,0.1,#d55e00,#d55e00,,-0.2,0.1,#cc79a7,#cc79a7,,A3VDG4N48AVYGQ,001,2020-12-11_20h36.40.613,change-localization,2020.1.2,Win32,60,,,0,18,18,18,1,,
,,-0.001851839,-0.100000009,1,0,0,1.03315,probe4,"[0,-0.1]",,,,,,20,probe4,0.05,0.05,0.2,0,#56b4e9,#56b4e9,,-0.1,0.2,#009e73,#009e73,,-0.2,-0.2,#e69f00,#e69f00,,0,-0.1,#f0e442,#cc79a7,,-0.1,0,#4A4A4A,#4A4A4A,,A3VDG4N48AVYGQ,001,2020-12-11_20h36.40.613,change-localization,2020.1.2,Win32,60,,,0,19,19,19,1,,
,,0.190740757,0.018518511,1,0,0,1.46628,probe3,"[0.2,0]",,,,,,21,probe3,0.05,0.05,-0.1,0.1,#0072b2,#0072b2,,-0.1,0.2,#009e73,#009e73,,0.2,0,#56b4e9,#4A4A4A,,-0.2,0.2,#f0e442,#f0e442,,0.2,0.1,#d55e00,#d55e00,,A3VDG4N48AVYGQ,001,2020-12-11_20h36.40.613,change-localization,2020.1.2,Win32,60,,,0,20,20,20,1,,
,,0.200000016,0.008333326,1,0,0,0.58334,probe2,"[0.2,0]",,,,,,22,probe4,0.05,0.05,0.2,-0.1,#d55e00,#d55e00,,0.2,0,#56b4e9,#56b4e9,,0.1,-0.2,#cc79a7,#cc79a7,,-0.2,-0.1,#4A4A4A,#009e73,,0,-0.2,#e69f00,#e69f00,,A3VDG4N48AVYGQ,001,2020-12-11_20h36.40.613,change-localization,2020.1.2,Win32,60,,,0,21,21,21,1,,
,,-0.215740674,-0.20000001,1,0,0,2.44936,probe4,"[-0.2,-0.2]",,,,,,23,probe4,0.05,0.05,0.1,0.1,#56b4e9,#56b4e9,,-0.2,-0.1,#0072b2,#0072b2,,0.2,0,#d55e00,#d55e00,,-0.2,-0.2,#cc79a7,#009e73,,0.1,-0.2,#4A4A4A,#4A4A4A,,A3VDG4N48AVYGQ,001,2020-12-11_20h36.40.613,change-localization,2020.1.2,Win32,60,,,0,22,22,22,1,,
,,0.187037053,0.204629625,1,0,0,1.783095,probe2,"[0.2,0.2]",,,,,,24,probe2,0.05,0.05,-0.1,-0.2,#4A4A4A,#4A4A4A,,0.2,0.2,#d55e00,#e69f00,,0.1,-0.1,#f0e442,#f0e442,,0.1,0.1,#56b4e9,#56b4e9,,-0.2,0.1,#cc79a7,#cc79a7,,A3VDG4N48AVYGQ,001,2020-12-11_20h36.40.613,change-localization,2020.1.2,Win32,60,,,0,23,23,23,1,,
,,-0.084259247,-0.091666675,1,0,0,1.899355,probe2,"[-0.1,-0.1]",,,,,,25,probe3,0.05,0.05,-0.2,-0.2,#f0e442,#f0e442,,-0.1,-0.1,#4A4A4A,#4A4A4A,,0.2,0,#d55e00,#cc79a7,,0,0.2,#0072b2,#0072b2,,-0.2,0.1,#009e73,#009e73,,A3VDG4N48AVYGQ,001,2020-12-11_20h36.40.613,change-localization,2020.1.2,Win32,60,,,0,24,24,24,1,,
,,-0.113888821,-0.199074084,1,0,0,3.681825,probe3,"[-0.1,-0.2]",,,,,,26,probe3,0.05,0.05,0.1,-0.1,#e69f00,#e69f00,,-0.2,0,#56b4e9,#56b4e9,,-0.1,-0.2,#009e73,#d55e00,,-0.2,-0.1,#4A4A4A,#4A4A4A,,0.1,0,#cc79a7,#cc79a7,,A3VDG4N48AVYGQ,001,2020-12-11_20h36.40.613,change-localization,2020.1.2,Win32,60,,,0,25,25,25,1,,
,,-0.174999989,-0.102777787,1,0,0,1.216335,probe5,"[-0.2,-0.1]",,,,,,27,probe5,0.05,0.05,-0.1,-0.2,#009e73,#009e73,,0.2,0,#cc79a7,#cc79a7,,-0.1,-0.1,#e69f00,#e69f00,,0.1,0.1,#d55e00,#d55e00,,-0.2,-0.1,#4A4A4A,#0072b2,,A3VDG4N48AVYGQ,001,2020-12-11_20h36.40.613,change-localization,2020.1.2,Win32,60,,,0,26,26,26,1,,
,,-0.109259191,0.206481477,1,0,0,1.31583,probe1,"[-0.1,0.2]",,,,,,28,probe5,0.05,0.05,-0.1,0.2,#009e73,#009e73,,-0.2,0.1,#56b4e9,#56b4e9,,0,-0.2,#d55e00,#d55e00,,0.1,0,#0072b2,#0072b2,,0.1,0.1,#f0e442,#e69f00,,A3VDG4N48AVYGQ,001,2020-12-11_20h36.40.613,change-localization,2020.1.2,Win32,60,,,0,27,27,27,1,,
,,0.125000015,-0.104629639,1,0,0,1.94943,probe1,"[0.1,-0.1]",,,,,,29,probe1,0.05,0.05,0.1,-0.1,#4A4A4A,#56b4e9,,-0.2,0.2,#e69f00,#e69f00,,-0.1,-0.1,#f0e442,#f0e442,,0.1,0.2,#0072b2,#0072b2,,-0.1,-0.2,#cc79a7,#cc79a7,,A3VDG4N48AVYGQ,001,2020-12-11_20h36.40.613,change-localization,2020.1.2,Win32,60,,,0,28,28,28,1,,
,,-0.109259191,-0.191666733,1,0,0,1.16626,probe2,"[-0.1,-0.2]",,,,,,30,probe2,0.05,0.05,0.1,0.2,#f0e442,#f0e442,,-0.1,-0.2,#d55e00,#4A4A4A,,0,-0.2,#cc79a7,#cc79a7,,0.1,-0.2,#0072b2,#0072b2,,-0.2,0,#009e73,#009e73,,A3VDG4N48AVYGQ,001,2020-12-11_20h36.40.613,change-localization,2020.1.2,Win32,60,,,0,29,29,29,1,,
,,-0.099074062,-0.113888898,1,0,0,0.783185,probe5,"[-0.1,-0.1]",,,,,,31,probe5,0.05,0.05,0,-0.2,#d55e00,#d55e00,,0.1,0,#e69f00,#e69f00,,0.1,0.2,#f0e442,#f0e442,,-0.2,-0.1,#cc79a7,#cc79a7,,-0.1,-0.1,#009e73,#4A4A4A,,A3VDG4N48AVYGQ,001,2020-12-11_20h36.40.613,change-localization,2020.1.2,Win32,60,,,0,30,30,30,1,,
,,-0.084259247,-0.100000009,1,0,0,1.482935,probe2,"[-0.1,-0.1]",,,,,,32,probe3,0.05,0.05,0.2,0.2,#56b4e9,#56b4e9,,-0.1,-0.1,#009e73,#009e73,,0.2,0.1,#cc79a7,#0072b2,,-0.2,0.1,#4A4A4A,#4A4A4A,,-0.2,-0.1,#f0e442,#f0e442,,A3VDG4N48AVYGQ,001,2020-12-11_20h36.40.613,change-localization,2020.1.2,Win32,60,,,0,31,31,31,1,,
,,-0.087037025,-0.09074075,1,0,0,0.99975,probe1,"[-0.1,-0.1]",,,,,,33,probe3,0.05,0.05,-0.1,-0.1,#0072b2,#0072b2,,0.1,0.1,#cc79a7,#cc79a7,,-0.1,0.1,#f0e442,#009e73,,0,-0.2,#56b4e9,#56b4e9,,0.1,0.2,#e69f00,#e69f00,,A3VDG4N48AVYGQ,001,2020-12-11_20h36.40.613,change-localization,2020.1.2,Win32,60,,,0,32,32,32,1,,
,,-0.184259249,-0.009259267,1,0,0,1.08265,probe5,"[-0.2,0]",,,,,,34,probe5,0.05,0.05,0.2,0.1,#e69f00,#e69f00,,-0.2,0.1,#cc79a7,#cc79a7,,0.1,-0.2,#0072b2,#0072b2,,0.2,-0.2,#d55e00,#d55e00,,-0.2,0,#56b4e9,#009e73,,A3VDG4N48AVYGQ,001,2020-12-11_20h36.40.613,change-localization,2020.1.2,Win32,60,,,0,33,33,33,1,,
,,0.211111128,-0.100000009,1,0,0,2.43282,probe2,"[0.2,-0.1]",,,,,,35,probe2,0.05,0.05,0.2,0,#56b4e9,#56b4e9,,0.2,-0.1,#e69f00,#009e73,,0.1,-0.1,#f0e442,#f0e442,,0,0.2,#d55e00,#d55e00,,0.1,0.2,#cc79a7,#cc79a7,,A3VDG4N48AVYGQ,001,2020-12-11_20h36.40.613,change-localization,2020.1.2,Win32,60,,,0,34,34,34,1,,
,,-0.110185174,-0.100000009,1,0,0,2.61628,probe4,"[-0.1,-0.1]",,,,,,36,probe3,0.05,0.05,0,0.1,#4A4A4A,#4A4A4A,,0.2,0.1,#009e73,#009e73,,-0.2,-0.1,#f0e442,#56b4e9,,-0.1,-0.1,#e69f00,#e69f00,,0.1,0,#0072b2,#0072b2,,A3VDG4N48AVYGQ,001,2020-12-11_20h36.40.613,change-localization,2020.1.2,Win32,60,,,0,35,35,35,1,,
,,0.070370385,0.000925918,1,0,0,1.48325,probe5,"[0.1,0]",,,,,,37,probe5,0.05,0.05,-0.2,0.1,#e69f00,#e69f00,,0.1,0.1,#0072b2,#0072b2,,-0.2,0,#d55e00,#d55e00,,-0.1,0.2,#cc79a7,#cc79a7,,0.1,0,#009e73,#f0e442,,A3VDG4N48AVYGQ,001,2020-12-11_20h36.40.613,change-localization,2020.1.2,Win32,60,,,0,36,36,36,1,,
,,0.083333348,-0.000925933,1,0,0,0.633025,probe4,"[0.1,0]",,,,,,38,probe4,0.05,0.05,0.2,-0.2,#4A4A4A,#4A4A4A,,0.2,0,#0072b2,#0072b2,,0.1,-0.1,#e69f00,#e69f00,,0.1,0,#d55e00,#cc79a7,,0,-0.1,#009e73,#009e73,,A3VDG4N48AVYGQ,001,2020-12-11_20h36.40.613,change-localization,2020.1.2,Win32,60,,,0,37,37,37,1,,
,,-0.19999999,0.196296292,1,0,0,1.91578,probe4,"[-0.2,0.2]",,,,,,39,probe4,0.05,0.05,0.1,-0.1,#e69f00,#e69f00,,-0.2,-0.1,#cc79a7,#cc79a7,,0.2,0.1,#d55e00,#d55e00,,-0.2,0.2,#56b4e9,#f0e442,,0,-0.1,#0072b2,#0072b2,,A3VDG4N48AVYGQ,001,2020-12-11_20h36.40.613,change-localization,2020.1.2,Win32,60,,,0,38,38,38,1,,
,,0.087037052,-0.09444451,1,0,0,5.331525,probe5,"[0.1,-0.1]",,,,,,40,probe1,0.05,0.05,-0.2,0.1,#4A4A4A,#d55e00,,0.2,0.2,#009e73,#009e73,,-0.1,-0.1,#cc79a7,#cc79a7,,0.2,-0.2,#e69f00,#e69f00,,0.1,-0.1,#56b4e9,#56b4e9,,A3VDG4N48AVYGQ,001,2020-12-11_20h36.40.613,change-localization,2020.1.2,Win32,60,,,0,39,39,39,1,,
,,-0.104629561,0.003703696,1,0,0,1.09979,probe4,"[-0.1,0]",,,,,,41,probe4,0.05,0.05,0.2,0.1,#009e73,#009e73,,-0.2,-0.1,#0072b2,#0072b2,,-0.2,-0.2,#56b4e9,#56b4e9,,-0.1,0,#f0e442,#cc79a7,,0,-0.2,#d55e00,#d55e00,,A3VDG4N48AVYGQ,001,2020-12-11_20h36.40.613,change-localization,2020.1.2,Win32,60,,,0,40,40,40,1,,
,,-0.099999932,-0.003703711,1,0,0,1.24957,probe5,"[-0.1,0]",,,,,,42,probe4,0.05,0.05,-0.1,-0.2,#009e73,#009e73,,-0.1,0.1,#cc79a7,#cc79a7,,0.1,0.1,#56b4e9,#56b4e9,,0,-0.2,#e69f00,#d55e00,,-0.1,0,#0072b2,#0072b2,,A3VDG4N48AVYGQ,001,2020-12-11_20h36.40.613,change-localization,2020.1.2,Win32,60,,,0,41,41,41,1,,
,,0.197222238,-0.09074075,1,0,0,1.26607,probe1,"[0.2,-0.1]",,,,,,43,probe1,0.05,0.05,0.2,-0.1,#e69f00,#009e73,,0.1,0,#cc79a7,#cc79a7,,-0.2,-0.2,#f0e442,#f0e442,,0.2,-0.2,#56b4e9,#56b4e9,,-0.2,0.1,#4A4A4A,#4A4A4A,,A3VDG4N48AVYGQ,001,2020-12-11_20h36.40.613,change-localization,2020.1.2,Win32,60,,,0,42,42,42,1,,
,,0.109259274,-0.007407415,1,0,0,2.33266,probe3,"[0.1,0]",,,,,,44,probe1,0.05,0.05,-0.1,0.2,#56b4e9,#e69f00,,0.2,0.1,#4A4A4A,#4A4A4A,,0.1,0,#cc79a7,#cc79a7,,0.1,0.2,#f0e442,#f0e442,,-0.1,-0.1,#d55e00,#d55e00,,A3VDG4N48AVYGQ,001,2020-12-11_20h36.40.613,change-localization,2020.1.2,Win32,60,,,0,43,43,43,1,,
,,-0.096296284,0.102777772,1,0,0,1.699425,probe3,"[-0.1,0.1]",,,,,,45,probe3,0.05,0.05,-0.2,0.2,#0072b2,#0072b2,,-0.2,-0.1,#56b4e9,#56b4e9,,-0.1,0.1,#f0e442,#e69f00,,-0.1,0.2,#d55e00,#d55e00,,0,-0.2,#cc79a7,#cc79a7,,A3VDG4N48AVYGQ,001,2020-12-11_20h36.40.613,change-localization,2020.1.2,Win32,60,,,0,44,44,44,1,,
,,0.186111127,0.116666661,1,0,0,1.416305,probe1,"[0.2,0.1]",,,,,,46,probe5,0.05,0.05,0.2,0.1,#0072b2,#0072b2,,0.1,0.2,#f0e442,#f0e442,,0.2,-0.2,#009e73,#009e73,,0.2,0.2,#4A4A4A,#4A4A4A,,0.2,0,#cc79a7,#e69f00,,A3VDG4N48AVYGQ,001,2020-12-11_20h36.40.613,change-localization,2020.1.2,Win32,60,,,0,45,45,45,1,,
,,0.214814831,0.18518518,1,0,0,0.916365,probe3,"[0.2,0.2]",,,,,,47,probe3,0.05,0.05,0,-0.1,#009e73,#009e73,,-0.2,0.2,#f0e442,#f0e442,,0.2,0.2,#56b4e9,#cc79a7,,-0.1,0.2,#4A4A4A,#4A4A4A,,-0.1,0.1,#e69f00,#e69f00,,A3VDG4N48AVYGQ,001,2020-12-11_20h36.40.613,change-localization,2020.1.2,Win32,60,,,0,46,46,46,1,,
,,-0.099999932,0.087037003,1,0,0,1.59917,probe2,"[-0.1,0.1]",,,,,,48,probe4,0.05,0.05,0.2,-0.2,#cc79a7,#cc79a7,,-0.1,0.1,#009e73,#009e73,,0.1,-0.2,#f0e442,#f0e442,,-0.2,-0.1,#d55e00,#0072b2,,-0.1,0,#56b4e9,#56b4e9,,A3VDG4N48AVYGQ,001,2020-12-11_20h36.40.613,change-localization,2020.1.2,Win32,60,,,0,47,47,47,1,,
,,-0.107407396,-0.102777787,1,0,0,12.24617,probe5,"[-0.1,-0.1]",,,,,,49,probe2,0.05,0.05,0,-0.2,#e69f00,#e69f00,,-0.2,0,#cc79a7,#0072b2,,-0.1,0.2,#f0e442,#f0e442,,0.1,0.2,#4A4A4A,#4A4A4A,,-0.1,-0.1,#56b4e9,#56b4e9,,A3VDG4N48AVYGQ,001,2020-12-11_20h36.40.613,change-localization,2020.1.2,Win32,60,,,0,48,48,48,1,,
,,-0.076851783,-0.0175926,1,0,0,0.8497,probe4,"[-0.1,0]",,,,,,50,probe4,0.05,0.05,0.2,0.1,#0072b2,#0072b2,,0.1,0.1,#cc79a7,#cc79a7,,0.1,-0.2,#56b4e9,#56b4e9,,-0.1,0,#009e73,#e69f00,,0,0.1,#d55e00,#d55e00,,A3VDG4N48AVYGQ,001,2020-12-11_20h36.40.613,change-localization,2020.1.2,Win32,60,,,0,49,49,49,1,,
,,,,,,,,,,,,,,,,,,,,,,,,,,,,,,,,,,,,,,,,,,,,A3VDG4N48AVYGQ,001,2020-12-11_20h36.40.613,change-localization,2020.1.2,Win32,60,,,,,,,,c,30.10772
