key_resp.keys,key_resp.rt,mouse.x,mouse.y,mouse.leftButton,mouse.midButton,mouse.rightButton,mouse.time,mouse.clicked_name,mouse.clicked_pos,training.thisRepN,training.thisTrialN,training.thisN,training.thisIndex,training.ran,trial,answer,height,width,x1,y1,stim_color1,probe_color1,copy_color1,x2,y2,stim_color2,probe_color2,copy_color2,x3,y3,stim_color3,probe_color3,copy_color3,x4,y4,stim_color4,probe_color4,copy_color4,x5,y5,stim_color5,probe_color5,copy_color5,participant,session,date,expName,psychopyVersion,OS,frameRate,key_resp_2.keys,key_resp_2.rt,trials.thisRepN,trials.thisTrialN,trials.thisN,trials.thisIndex,trials.ran,completion_keys.keys,completion_keys.rt
c,7.368735,0.100839774,0.176713785,1,0,0,13.85519,probe1,"[0.1,0.2]",0,0,0,0,1,1,probe4,0.05,0.05,0.1,0.2,#0072b2,#0072b2,#0072b2,0.1,-0.1,#e69f00,#e69f00,#e69f00,-0.1,-0.2,#cc79a7,#cc79a7,#cc79a7,0.2,-0.1,#4A4A4A,#f0e442,#FFFFFF,0.2,0,#009e73,#009e73,#009e73,A4QX9VKEF9IG0,001,2020-12-12_09h47.21.505,change-localization,2020.1.2,Linux x86_64,60,,,,,,,,,
,,0.177946885,-0.006589572,1,0,0,1.899025,probe1,"[0.2,0]",0,1,1,1,1,2,probe1,0.05,0.05,0.2,0,#d55e00,#009e73,#FFFFFF,0.2,-0.1,#e69f00,#e69f00,#e69f00,0.1,0,#4A4A4A,#4A4A4A,#4A4A4A,-0.1,0.1,#56b4e9,#56b4e9,#56b4e9,-0.1,0,#cc79a7,#cc79a7,#cc79a7,A4QX9VKEF9IG0,001,2020-12-12_09h47.21.505,change-localization,2020.1.2,Linux x86_64,60,,,,,,,,,
,,-0.02907904,-0.104433934,1,0,0,2.51636,probe5,"[0,-0.1]",0,2,2,2,1,3,probe1,0.05,0.05,-0.2,-0.2,#f0e442,#009e73,#FFFFFF,0.2,-0.1,#d55e00,#d55e00,#d55e00,-0.2,0,#4A4A4A,#4A4A4A,#4A4A4A,-0.1,-0.1,#0072b2,#0072b2,#0072b2,0,-0.1,#56b4e9,#56b4e9,#56b4e9,A4QX9VKEF9IG0,001,2020-12-12_09h47.21.505,change-localization,2020.1.2,Linux x86_64,60,,,,,,,,,
,,0.196537971,-0.218739827,1,0,0,1.595505,probe3,"[0.2,-0.2]",0,3,3,3,1,4,probe1,0.05,0.05,0.2,0.2,#d55e00,#56b4e9,#FFFFFF,-0.2,0.2,#f0e442,#f0e442,#f0e442,0.2,-0.2,#0072b2,#0072b2,#0072b2,-0.2,0,#cc79a7,#cc79a7,#cc79a7,-0.2,0.1,#4A4A4A,#4A4A4A,#4A4A4A,A4QX9VKEF9IG0,001,2020-12-12_09h47.21.505,change-localization,2020.1.2,Linux x86_64,60,,,,,,,,,
,,-0.196564039,0.081576705,1,0,0,1.76761,probe1,"[-0.2,0.1]",0,4,4,4,1,5,probe3,0.05,0.05,-0.2,0.1,#56b4e9,#56b4e9,#56b4e9,0,0.2,#009e73,#009e73,#009e73,0,0.1,#0072b2,#cc79a7,#FFFFFF,-0.1,-0.1,#4A4A4A,#4A4A4A,#4A4A4A,0.2,0,#f0e442,#f0e442,#f0e442,A4QX9VKEF9IG0,001,2020-12-12_09h47.21.505,change-localization,2020.1.2,Linux x86_64,60,,,,,,,,,
,,-0.088262479,0.102241596,1,0,0,0.999695,probe1,"[-0.1,0.1]",0,5,5,5,1,6,probe5,0.05,0.05,-0.1,0.1,#f0e442,#f0e442,#f0e442,0,0.1,#009e73,#009e73,#009e73,-0.2,0,#4A4A4A,#4A4A4A,#4A4A4A,0,-0.2,#d55e00,#d55e00,#d55e00,0.1,0,#cc79a7,#0072b2,#FFFFFF,A4QX9VKEF9IG0,001,2020-12-12_09h47.21.505,change-localization,2020.1.2,Linux x86_64,60,,,,,,,,,
,,0.099392017,0.178263207,1,0,0,1.599935,probe2,"[0.1,0.2]",0,6,6,6,1,7,probe2,0.05,0.05,-0.2,-0.2,#4A4A4A,#4A4A4A,#4A4A4A,0.1,0.2,#0072b2,#d55e00,#FFFFFF,-0.1,-0.2,#f0e442,#f0e442,#f0e442,-0.2,0.2,#009e73,#009e73,#009e73,0.2,0.2,#e69f00,#e69f00,#e69f00,A4QX9VKEF9IG0,001,2020-12-12_09h47.21.505,change-localization,2020.1.2,Linux x86_64,60,,,,,,,,,
,,-0.087227027,-0.001520236,1,0,0,2.29805,probe2,"[-0.1,0]",0,7,7,7,1,8,probe1,0.05,0.05,0.1,-0.2,#009e73,#f0e442,#FFFFFF,-0.1,0,#d55e00,#d55e00,#d55e00,-0.1,0.1,#4A4A4A,#4A4A4A,#4A4A4A,-0.2,0,#cc79a7,#cc79a7,#cc79a7,0.2,0,#e69f00,#e69f00,#e69f00,A4QX9VKEF9IG0,001,2020-12-12_09h47.21.505,change-localization,2020.1.2,Linux x86_64,60,,,,,,,,,
,,0.109455665,-0.190886736,1,0,0,1.36714,probe1,"[0.1,-0.2]",0,8,8,8,1,9,probe1,0.05,0.05,0.1,-0.2,#0072b2,#e69f00,#FFFFFF,-0.1,0.2,#f0e442,#f0e442,#f0e442,-0.2,0.1,#d55e00,#d55e00,#d55e00,0.2,0.2,#cc79a7,#cc79a7,#cc79a7,0.1,0.1,#56b4e9,#56b4e9,#56b4e9,A4QX9VKEF9IG0,001,2020-12-12_09h47.21.505,change-localization,2020.1.2,Linux x86_64,60,,,,,,,,,
,,-0.088667472,-0.111500223,1,0,0,1.766465,probe1,"[-0.1,-0.1]",0,9,9,9,1,10,probe1,0.05,0.05,-0.1,-0.1,#4A4A4A,#f0e442,#FFFFFF,0,0.2,#cc79a7,#cc79a7,#cc79a7,0.2,-0.2,#e69f00,#e69f00,#e69f00,0.1,-0.2,#009e73,#009e73,#009e73,0.1,0.1,#d55e00,#d55e00,#d55e00,A4QX9VKEF9IG0,001,2020-12-12_09h47.21.505,change-localization,2020.1.2,Linux x86_64,60,,,,,,,,,
,,-0.076155901,0.017344117,1,0,0,1.366405,probe3,"[-0.1,0]",,,,,,1,probe2,0.05,0.05,-0.2,0.2,#009e73,#009e73,,-0.1,0.2,#f0e442,#e69f00,,-0.1,0,#0072b2,#0072b2,,0,-0.2,#cc79a7,#cc79a7,,0,0.2,#d55e00,#d55e00,,A4QX9VKEF9IG0,001,2020-12-12_09h47.21.505,change-localization,2020.1.2,Linux x86_64,60,c,7.309335,0,0,0,0,1,,
,,0.008256038,-0.099820495,1,0,0,1.10031,probe5,"[0,-0.1]",,,,,,2,probe5,0.05,0.05,0,0.1,#009e73,#009e73,,0.2,0.1,#4A4A4A,#4A4A4A,,-0.1,-0.1,#cc79a7,#cc79a7,,0.1,0.1,#d55e00,#d55e00,,0,-0.1,#56b4e9,#e69f00,,A4QX9VKEF9IG0,001,2020-12-12_09h47.21.505,change-localization,2020.1.2,Linux x86_64,60,,,0,1,1,1,1,,
,,0.099100908,-0.1131169,1,0,0,1.232945,probe1,"[0.1,-0.1]",,,,,,3,probe4,0.05,0.05,0.1,-0.1,#56b4e9,#56b4e9,,0.2,0,#f0e442,#f0e442,,0.2,-0.1,#e69f00,#e69f00,,-0.1,0.1,#4A4A4A,#009e73,,-0.1,0.2,#d55e00,#d55e00,,A4QX9VKEF9IG0,001,2020-12-12_09h47.21.505,change-localization,2020.1.2,Linux x86_64,60,,,0,2,2,2,1,,
,,0.207798004,0.007807056,1,0,0,1.249685,probe1,"[0.2,0]",,,,,,4,probe5,0.05,0.05,0.2,0,#56b4e9,#56b4e9,,-0.2,-0.2,#cc79a7,#cc79a7,,0,0.2,#4A4A4A,#4A4A4A,,0.2,-0.2,#e69f00,#e69f00,,-0.2,0,#f0e442,#009e73,,A4QX9VKEF9IG0,001,2020-12-12_09h47.21.505,change-localization,2020.1.2,Linux x86_64,60,,,0,3,3,3,1,,
,,-0.085509618,-0.107291857,1,0,0,1.10005,probe3,"[-0.1,-0.1]",,,,,,5,probe3,0.05,0.05,-0.2,0.1,#4A4A4A,#4A4A4A,,0.2,0.2,#009e73,#009e73,,-0.1,-0.1,#0072b2,#f0e442,,0.2,0,#cc79a7,#cc79a7,,0.1,0.1,#e69f00,#e69f00,,A4QX9VKEF9IG0,001,2020-12-12_09h47.21.505,change-localization,2020.1.2,Linux x86_64,60,,,0,4,4,4,1,,
,,0.001244545,0.200366497,1,0,0,1.469735,probe4,"[0,0.2]",,,,,,6,probe4,0.05,0.05,-0.1,0.1,#d55e00,#d55e00,,-0.2,0.2,#0072b2,#0072b2,,0,-0.1,#e69f00,#e69f00,,0,0.2,#56b4e9,#4A4A4A,,-0.2,-0.2,#009e73,#009e73,,A4QX9VKEF9IG0,001,2020-12-12_09h47.21.505,change-localization,2020.1.2,Linux x86_64,60,,,0,5,5,5,1,,
,,0.211214463,-0.10081776,1,0,0,1.399055,probe1,"[0.2,-0.1]",,,,,,7,probe4,0.05,0.05,0.2,-0.1,#56b4e9,#56b4e9,,-0.1,-0.1,#e69f00,#e69f00,,-0.2,0.2,#009e73,#009e73,,0.2,0.2,#cc79a7,#4A4A4A,,0.2,-0.2,#d55e00,#d55e00,,A4QX9VKEF9IG0,001,2020-12-12_09h47.21.505,change-localization,2020.1.2,Linux x86_64,60,,,0,6,6,6,1,,
,,-0.192645152,0.188144883,1,0,0,1.88579,probe4,"[-0.2,0.2]",,,,,,8,probe4,0.05,0.05,-0.2,0.1,#e69f00,#e69f00,,0.1,0.2,#cc79a7,#cc79a7,,0.2,0.1,#4A4A4A,#4A4A4A,,-0.2,0.2,#56b4e9,#d55e00,,0.2,-0.1,#0072b2,#0072b2,,A4QX9VKEF9IG0,001,2020-12-12_09h47.21.505,change-localization,2020.1.2,Linux x86_64,60,,,0,7,7,7,1,,
,,0.218044599,0.204017421,1,0,0,4.86788,probe5,"[0.2,0.2]",,,,,,9,probe5,0.05,0.05,-0.1,0,#4A4A4A,#4A4A4A,,0.1,0.1,#56b4e9,#56b4e9,,-0.2,0.1,#009e73,#009e73,,0.2,0.1,#cc79a7,#cc79a7,,0.2,0.2,#d55e00,#f0e442,,A4QX9VKEF9IG0,001,2020-12-12_09h47.21.505,change-localization,2020.1.2,Linux x86_64,60,,,0,8,8,8,1,,
,,0.007223368,0.105066816,1,0,0,1.33509,probe3,"[0,0.1]",,,,,,10,probe3,0.05,0.05,0.2,0.2,#f0e442,#f0e442,,0.1,-0.1,#e69f00,#e69f00,,0,0.1,#cc79a7,#4A4A4A,,-0.2,0.1,#56b4e9,#56b4e9,,0.2,0,#0072b2,#0072b2,,A4QX9VKEF9IG0,001,2020-12-12_09h47.21.505,change-localization,2020.1.2,Linux x86_64,60,,,0,9,9,9,1,,
,,0.098248323,-0.217248519,1,0,0,1.28247,probe5,"[0.1,-0.2]",,,,,,11,probe5,0.05,0.05,0.2,0.2,#4A4A4A,#4A4A4A,,0.1,0.2,#0072b2,#0072b2,,0.1,-0.1,#cc79a7,#cc79a7,,0,-0.2,#009e73,#009e73,,0.1,-0.2,#f0e442,#d55e00,,A4QX9VKEF9IG0,001,2020-12-12_09h47.21.505,change-localization,2020.1.2,Linux x86_64,60,,,0,10,10,10,1,,
,,0.003109773,-0.113077561,1,0,0,4.084305,probe5,"[0,-0.1]",,,,,,12,probe4,0.05,0.05,-0.1,-0.1,#009e73,#009e73,,-0.1,0,#56b4e9,#56b4e9,,-0.1,-0.2,#0072b2,#0072b2,,0.1,0,#d55e00,#f0e442,,0,-0.1,#cc79a7,#cc79a7,,A4QX9VKEF9IG0,001,2020-12-12_09h47.21.505,change-localization,2020.1.2,Linux x86_64,60,,,0,11,11,11,1,,
,,-0.202054977,0.204129438,1,0,0,1.50217,probe4,"[-0.2,0.2]",,,,,,13,probe4,0.05,0.05,0,-0.1,#f0e442,#f0e442,,0.1,-0.1,#d55e00,#d55e00,,0.1,0.1,#0072b2,#0072b2,,-0.2,0.2,#cc79a7,#4A4A4A,,0.1,0.2,#009e73,#009e73,,A4QX9VKEF9IG0,001,2020-12-12_09h47.21.505,change-localization,2020.1.2,Linux x86_64,60,,,0,12,12,12,1,,
,,-0.203868866,-0.011234522,1,0,0,2.15131,probe3,"[-0.2,0]",,,,,,14,probe5,0.05,0.05,0,0.2,#cc79a7,#cc79a7,,0,-0.1,#4A4A4A,#4A4A4A,,-0.2,0,#56b4e9,#56b4e9,,0.1,0.1,#0072b2,#0072b2,,0.1,0.2,#009e73,#e69f00,,A4QX9VKEF9IG0,001,2020-12-12_09h47.21.505,change-localization,2020.1.2,Linux x86_64,60,,,0,13,13,13,1,,
,,0.19745175,0.090217551,1,0,0,1.249805,probe3,"[0.2,0.1]",,,,,,15,probe3,0.05,0.05,0.2,0.2,#cc79a7,#cc79a7,,0,0.2,#56b4e9,#56b4e9,,0.2,0.1,#d55e00,#4A4A4A,,0.1,-0.1,#f0e442,#f0e442,,0.2,-0.1,#0072b2,#0072b2,,A4QX9VKEF9IG0,001,2020-12-12_09h47.21.505,change-localization,2020.1.2,Linux x86_64,60,,,0,14,14,14,1,,
,,-0.210482518,0.094562809,1,0,0,1.750345,probe4,"[-0.2,0.1]",,,,,,16,probe3,0.05,0.05,-0.2,-0.1,#f0e442,#f0e442,,-0.2,0.2,#d55e00,#d55e00,,0.1,0.1,#009e73,#4A4A4A,,-0.2,0.1,#56b4e9,#56b4e9,,0,-0.1,#cc79a7,#cc79a7,,A4QX9VKEF9IG0,001,2020-12-12_09h47.21.505,change-localization,2020.1.2,Linux x86_64,60,,,0,15,15,15,1,,
,,-0.009731293,0.092589895,1,0,0,1.36621,probe3,"[0,0.1]",,,,,,17,probe3,0.05,0.05,0.2,-0.1,#cc79a7,#cc79a7,,0,-0.2,#0072b2,#0072b2,,0,0.1,#4A4A4A,#e69f00,,-0.2,-0.1,#f0e442,#f0e442,,-0.1,-0.1,#009e73,#009e73,,A4QX9VKEF9IG0,001,2020-12-12_09h47.21.505,change-localization,2020.1.2,Linux x86_64,60,,,0,16,16,16,1,,
,,0.188904365,-0.007718364,1,0,0,2.00054,probe3,"[0.2,0]",,,,,,18,probe3,0.05,0.05,-0.1,0.1,#d55e00,#d55e00,,-0.1,0.2,#e69f00,#e69f00,,0.2,0,#009e73,#0072b2,,0.1,-0.1,#cc79a7,#cc79a7,,-0.2,0.2,#4A4A4A,#4A4A4A,,A4QX9VKEF9IG0,001,2020-12-12_09h47.21.505,change-localization,2020.1.2,Linux x86_64,60,,,0,17,17,17,1,,
,,-0.082243681,0.120063424,1,0,0,1.483445,probe3,"[-0.1,0.1]",,,,,,19,probe3,0.05,0.05,-0.1,0.2,#0072b2,#0072b2,,0,-0.1,#4A4A4A,#4A4A4A,,-0.1,0.1,#e69f00,#009e73,,0.2,0.1,#d55e00,#d55e00,,-0.2,0.1,#cc79a7,#cc79a7,,A4QX9VKEF9IG0,001,2020-12-12_09h47.21.505,change-localization,2020.1.2,Linux x86_64,60,,,0,18,18,18,1,,
,,0.206248045,-0.006197731,1,0,0,2.93465,probe1,"[0.2,0]",,,,,,20,probe4,0.05,0.05,0.2,0,#56b4e9,#56b4e9,,-0.1,0.2,#009e73,#009e73,,-0.2,-0.2,#e69f00,#e69f00,,0,-0.1,#f0e442,#cc79a7,,-0.1,0,#4A4A4A,#4A4A4A,,A4QX9VKEF9IG0,001,2020-12-12_09h47.21.505,change-localization,2020.1.2,Linux x86_64,60,,,0,19,19,19,1,,
,,0.2055432,0.001003265,1,0,0,1.671405,probe3,"[0.2,0]",,,,,,21,probe3,0.05,0.05,-0.1,0.1,#0072b2,#0072b2,,-0.1,0.2,#009e73,#009e73,,0.2,0,#56b4e9,#4A4A4A,,-0.2,0.2,#f0e442,#f0e442,,0.2,0.1,#d55e00,#d55e00,,A4QX9VKEF9IG0,001,2020-12-12_09h47.21.505,change-localization,2020.1.2,Linux x86_64,60,,,0,20,20,20,1,,
,,-0.19112285,-0.098453919,1,0,0,1.76663,probe4,"[-0.2,-0.1]",,,,,,22,probe4,0.05,0.05,0.2,-0.1,#d55e00,#d55e00,,0.2,0,#56b4e9,#56b4e9,,0.1,-0.2,#cc79a7,#cc79a7,,-0.2,-0.1,#4A4A4A,#009e73,,0,-0.2,#e69f00,#e69f00,,A4QX9VKEF9IG0,001,2020-12-12_09h47.21.505,change-localization,2020.1.2,Linux x86_64,60,,,0,21,21,21,1,,
,,-0.203463793,-0.208536069,1,0,0,2.037785,probe4,"[-0.2,-0.2]",,,,,,23,probe4,0.05,0.05,0.1,0.1,#56b4e9,#56b4e9,,-0.2,-0.1,#0072b2,#0072b2,,0.2,0,#d55e00,#d55e00,,-0.2,-0.2,#cc79a7,#009e73,,0.1,-0.2,#4A4A4A,#4A4A4A,,A4QX9VKEF9IG0,001,2020-12-12_09h47.21.505,change-localization,2020.1.2,Linux x86_64,60,,,0,22,22,22,1,,
,,0.096606572,0.09231174,1,0,0,1.8637,probe4,"[0.1,0.1]",,,,,,24,probe2,0.05,0.05,-0.1,-0.2,#4A4A4A,#4A4A4A,,0.2,0.2,#d55e00,#e69f00,,0.1,-0.1,#f0e442,#f0e442,,0.1,0.1,#56b4e9,#56b4e9,,-0.2,0.1,#cc79a7,#cc79a7,,A4QX9VKEF9IG0,001,2020-12-12_09h47.21.505,change-localization,2020.1.2,Linux x86_64,60,,,0,23,23,23,1,,
,,-0.004031499,0.194162468,1,0,0,2.049715,probe4,"[0,0.2]",,,,,,25,probe3,0.05,0.05,-0.2,-0.2,#f0e442,#f0e442,,-0.1,-0.1,#4A4A4A,#4A4A4A,,0.2,0,#d55e00,#cc79a7,,0,0.2,#0072b2,#0072b2,,-0.2,0.1,#009e73,#009e73,,A4QX9VKEF9IG0,001,2020-12-12_09h47.21.505,change-localization,2020.1.2,Linux x86_64,60,,,0,24,24,24,1,,
,,-0.19895037,-0.009264708,1,0,0,1.816035,probe2,"[-0.2,0]",,,,,,26,probe3,0.05,0.05,0.1,-0.1,#e69f00,#e69f00,,-0.2,0,#56b4e9,#56b4e9,,-0.1,-0.2,#009e73,#d55e00,,-0.2,-0.1,#4A4A4A,#4A4A4A,,0.1,0,#cc79a7,#cc79a7,,A4QX9VKEF9IG0,001,2020-12-12_09h47.21.505,change-localization,2020.1.2,Linux x86_64,60,,,0,25,25,25,1,,
,,-0.209832191,-0.104672432,1,0,0,2.23372,probe5,"[-0.2,-0.1]",,,,,,27,probe5,0.05,0.05,-0.1,-0.2,#009e73,#009e73,,0.2,0,#cc79a7,#cc79a7,,-0.1,-0.1,#e69f00,#e69f00,,0.1,0.1,#d55e00,#d55e00,,-0.2,-0.1,#4A4A4A,#0072b2,,A4QX9VKEF9IG0,001,2020-12-12_09h47.21.505,change-localization,2020.1.2,Linux x86_64,60,,,0,26,26,26,1,,
,,0.123388608,0.103840947,1,0,0,2.45188,probe5,"[0.1,0.1]",,,,,,28,probe5,0.05,0.05,-0.1,0.2,#009e73,#009e73,,-0.2,0.1,#56b4e9,#56b4e9,,0,-0.2,#d55e00,#d55e00,,0.1,0,#0072b2,#0072b2,,0.1,0.1,#f0e442,#e69f00,,A4QX9VKEF9IG0,001,2020-12-12_09h47.21.505,change-localization,2020.1.2,Linux x86_64,60,,,0,27,27,27,1,,
,,0.085735798,-0.148554365,1,0,0,1.065175,probe1,"[0.1,-0.1]",,,,,,29,probe1,0.05,0.05,0.1,-0.1,#4A4A4A,#56b4e9,,-0.2,0.2,#e69f00,#e69f00,,-0.1,-0.1,#f0e442,#f0e442,,0.1,0.2,#0072b2,#0072b2,,-0.1,-0.2,#cc79a7,#cc79a7,,A4QX9VKEF9IG0,001,2020-12-12_09h47.21.505,change-localization,2020.1.2,Linux x86_64,60,,,0,28,28,28,1,,
,,-0.084950606,-0.200035413,1,0,0,1.79895,probe2,"[-0.1,-0.2]",,,,,,30,probe2,0.05,0.05,0.1,0.2,#f0e442,#f0e442,,-0.1,-0.2,#d55e00,#4A4A4A,,0,-0.2,#cc79a7,#cc79a7,,0.1,-0.2,#0072b2,#0072b2,,-0.2,0,#009e73,#009e73,,A4QX9VKEF9IG0,001,2020-12-12_09h47.21.505,change-localization,2020.1.2,Linux x86_64,60,,,0,29,29,29,1,,
,,-0.091252645,-0.09960111,1,0,0,2.13392,probe5,"[-0.1,-0.1]",,,,,,31,probe5,0.05,0.05,0,-0.2,#d55e00,#d55e00,,0.1,0,#e69f00,#e69f00,,0.1,0.2,#f0e442,#f0e442,,-0.2,-0.1,#cc79a7,#cc79a7,,-0.1,-0.1,#009e73,#4A4A4A,,A4QX9VKEF9IG0,001,2020-12-12_09h47.21.505,change-localization,2020.1.2,Linux x86_64,60,,,0,30,30,30,1,,
,,0.201550404,0.103715499,1,0,0,1.24975,probe3,"[0.2,0.1]",,,,,,32,probe3,0.05,0.05,0.2,0.2,#56b4e9,#56b4e9,,-0.1,-0.1,#009e73,#009e73,,0.2,0.1,#cc79a7,#0072b2,,-0.2,0.1,#4A4A4A,#4A4A4A,,-0.2,-0.1,#f0e442,#f0e442,,A4QX9VKEF9IG0,001,2020-12-12_09h47.21.505,change-localization,2020.1.2,Linux x86_64,60,,,0,31,31,31,1,,
,,0.009855429,-0.204501708,1,0,0,2.684,probe4,"[0,-0.2]",,,,,,33,probe3,0.05,0.05,-0.1,-0.1,#0072b2,#0072b2,,0.1,0.1,#cc79a7,#cc79a7,,-0.1,0.1,#f0e442,#009e73,,0,-0.2,#56b4e9,#56b4e9,,0.1,0.2,#e69f00,#e69f00,,A4QX9VKEF9IG0,001,2020-12-12_09h47.21.505,change-localization,2020.1.2,Linux x86_64,60,,,0,32,32,32,1,,
,,-0.203216791,-0.004294197,1,0,0,1.749565,probe5,"[-0.2,0]",,,,,,34,probe5,0.05,0.05,0.2,0.1,#e69f00,#e69f00,,-0.2,0.1,#cc79a7,#cc79a7,,0.1,-0.2,#0072b2,#0072b2,,0.2,-0.2,#d55e00,#d55e00,,-0.2,0,#56b4e9,#009e73,,A4QX9VKEF9IG0,001,2020-12-12_09h47.21.505,change-localization,2020.1.2,Linux x86_64,60,,,0,33,33,33,1,,
,,0.190580606,0.007387201,1,0,0,4.050485,probe1,"[0.2,0]",,,,,,35,probe2,0.05,0.05,0.2,0,#56b4e9,#56b4e9,,0.2,-0.1,#e69f00,#009e73,,0.1,-0.1,#f0e442,#f0e442,,0,0.2,#d55e00,#d55e00,,0.1,0.2,#cc79a7,#cc79a7,,A4QX9VKEF9IG0,001,2020-12-12_09h47.21.505,change-localization,2020.1.2,Linux x86_64,60,,,0,34,34,34,1,,
,,0.102495352,-0.012598077,1,0,0,4.3341,probe5,"[0.1,0]",,,,,,36,probe3,0.05,0.05,0,0.1,#4A4A4A,#4A4A4A,,0.2,0.1,#009e73,#009e73,,-0.2,-0.1,#f0e442,#56b4e9,,-0.1,-0.1,#e69f00,#e69f00,,0.1,0,#0072b2,#0072b2,,A4QX9VKEF9IG0,001,2020-12-12_09h47.21.505,change-localization,2020.1.2,Linux x86_64,60,,,0,35,35,35,1,,
,,0.097303232,-0.015145659,1,0,0,1.367015,probe5,"[0.1,0]",,,,,,37,probe5,0.05,0.05,-0.2,0.1,#e69f00,#e69f00,,0.1,0.1,#0072b2,#0072b2,,-0.2,0,#d55e00,#d55e00,,-0.1,0.2,#cc79a7,#cc79a7,,0.1,0,#009e73,#f0e442,,A4QX9VKEF9IG0,001,2020-12-12_09h47.21.505,change-localization,2020.1.2,Linux x86_64,60,,,0,36,36,36,1,,
,,0.193169832,-0.014937202,1,0,0,2.134285,probe2,"[0.2,0]",,,,,,38,probe4,0.05,0.05,0.2,-0.2,#4A4A4A,#4A4A4A,,0.2,0,#0072b2,#0072b2,,0.1,-0.1,#e69f00,#e69f00,,0.1,0,#d55e00,#cc79a7,,0,-0.1,#009e73,#009e73,,A4QX9VKEF9IG0,001,2020-12-12_09h47.21.505,change-localization,2020.1.2,Linux x86_64,60,,,0,37,37,37,1,,
,,-0.19676288,0.194183568,1,0,0,1.58309,probe4,"[-0.2,0.2]",,,,,,39,probe4,0.05,0.05,0.1,-0.1,#e69f00,#e69f00,,-0.2,-0.1,#cc79a7,#cc79a7,,0.2,0.1,#d55e00,#d55e00,,-0.2,0.2,#56b4e9,#f0e442,,0,-0.1,#0072b2,#0072b2,,A4QX9VKEF9IG0,001,2020-12-12_09h47.21.505,change-localization,2020.1.2,Linux x86_64,60,,,0,38,38,38,1,,
,,-0.185000102,0.086937229,1,0,0,1.51694,probe1,"[-0.2,0.1]",,,,,,40,probe1,0.05,0.05,-0.2,0.1,#4A4A4A,#d55e00,,0.2,0.2,#009e73,#009e73,,-0.1,-0.1,#cc79a7,#cc79a7,,0.2,-0.2,#e69f00,#e69f00,,0.1,-0.1,#56b4e9,#56b4e9,,A4QX9VKEF9IG0,001,2020-12-12_09h47.21.505,change-localization,2020.1.2,Linux x86_64,60,,,0,39,39,39,1,,
,,-0.181756814,-0.195052783,1,0,0,1.598715,probe3,"[-0.2,-0.2]",,,,,,41,probe4,0.05,0.05,0.2,0.1,#009e73,#009e73,,-0.2,-0.1,#0072b2,#0072b2,,-0.2,-0.2,#56b4e9,#56b4e9,,-0.1,0,#f0e442,#cc79a7,,0,-0.2,#d55e00,#d55e00,,A4QX9VKEF9IG0,001,2020-12-12_09h47.21.505,change-localization,2020.1.2,Linux x86_64,60,,,0,40,40,40,1,,
,,0.109949509,0.104086439,1,0,0,2.28263,probe3,"[0.1,0.1]",,,,,,42,probe4,0.05,0.05,-0.1,-0.2,#009e73,#009e73,,-0.1,0.1,#cc79a7,#cc79a7,,0.1,0.1,#56b4e9,#56b4e9,,0,-0.2,#e69f00,#d55e00,,-0.1,0,#0072b2,#0072b2,,A4QX9VKEF9IG0,001,2020-12-12_09h47.21.505,change-localization,2020.1.2,Linux x86_64,60,,,0,41,41,41,1,,
,,0.188032071,-0.106316288,1,0,0,3.132655,probe1,"[0.2,-0.1]",,,,,,43,probe1,0.05,0.05,0.2,-0.1,#e69f00,#009e73,,0.1,0,#cc79a7,#cc79a7,,-0.2,-0.2,#f0e442,#f0e442,,0.2,-0.2,#56b4e9,#56b4e9,,-0.2,0.1,#4A4A4A,#4A4A4A,,A4QX9VKEF9IG0,001,2020-12-12_09h47.21.505,change-localization,2020.1.2,Linux x86_64,60,,,0,42,42,42,1,,
,,-0.109979788,0.19673111,1,0,0,1.835595,probe1,"[-0.1,0.2]",,,,,,44,probe1,0.05,0.05,-0.1,0.2,#56b4e9,#e69f00,,0.2,0.1,#4A4A4A,#4A4A4A,,0.1,0,#cc79a7,#cc79a7,,0.1,0.2,#f0e442,#f0e442,,-0.1,-0.1,#d55e00,#d55e00,,A4QX9VKEF9IG0,001,2020-12-12_09h47.21.505,change-localization,2020.1.2,Linux x86_64,60,,,0,43,43,43,1,,
,,-0.219391187,-0.094938397,1,0,0,1.252255,probe2,"[-0.2,-0.1]",,,,,,45,probe3,0.05,0.05,-0.2,0.2,#0072b2,#0072b2,,-0.2,-0.1,#56b4e9,#56b4e9,,-0.1,0.1,#f0e442,#e69f00,,-0.1,0.2,#d55e00,#d55e00,,0,-0.2,#cc79a7,#cc79a7,,A4QX9VKEF9IG0,001,2020-12-12_09h47.21.505,change-localization,2020.1.2,Linux x86_64,60,,,0,44,44,44,1,,
,,0.217562358,0.09035035,1,0,0,2.73442,probe1,"[0.2,0.1]",,,,,,46,probe5,0.05,0.05,0.2,0.1,#0072b2,#0072b2,,0.1,0.2,#f0e442,#f0e442,,0.2,-0.2,#009e73,#009e73,,0.2,0.2,#4A4A4A,#4A4A4A,,0.2,0,#cc79a7,#e69f00,,A4QX9VKEF9IG0,001,2020-12-12_09h47.21.505,change-localization,2020.1.2,Linux x86_64,60,,,0,45,45,45,1,,
,,0.197343826,0.196561535,1,0,0,1.35031,probe3,"[0.2,0.2]",,,,,,47,probe3,0.05,0.05,0,-0.1,#009e73,#009e73,,-0.2,0.2,#f0e442,#f0e442,,0.2,0.2,#56b4e9,#cc79a7,,-0.1,0.2,#4A4A4A,#4A4A4A,,-0.1,0.1,#e69f00,#e69f00,,A4QX9VKEF9IG0,001,2020-12-12_09h47.21.505,change-localization,2020.1.2,Linux x86_64,60,,,0,46,46,46,1,,
,,-0.1837159,-0.096516172,1,0,0,1.800225,probe4,"[-0.2,-0.1]",,,,,,48,probe4,0.05,0.05,0.2,-0.2,#cc79a7,#cc79a7,,-0.1,0.1,#009e73,#009e73,,0.1,-0.2,#f0e442,#f0e442,,-0.2,-0.1,#d55e00,#0072b2,,-0.1,0,#56b4e9,#56b4e9,,A4QX9VKEF9IG0,001,2020-12-12_09h47.21.505,change-localization,2020.1.2,Linux x86_64,60,,,0,47,47,47,1,,
,,-0.209000587,0.000428597,1,0,0,1.5328,probe2,"[-0.2,0]",,,,,,49,probe2,0.05,0.05,0,-0.2,#e69f00,#e69f00,,-0.2,0,#cc79a7,#0072b2,,-0.1,0.2,#f0e442,#f0e442,,0.1,0.2,#4A4A4A,#4A4A4A,,-0.1,-0.1,#56b4e9,#56b4e9,,A4QX9VKEF9IG0,001,2020-12-12_09h47.21.505,change-localization,2020.1.2,Linux x86_64,60,,,0,48,48,48,1,,
,,0.111290296,-0.210043589,1,0,0,1.633245,probe3,"[0.1,-0.2]",,,,,,50,probe4,0.05,0.05,0.2,0.1,#0072b2,#0072b2,,0.1,0.1,#cc79a7,#cc79a7,,0.1,-0.2,#56b4e9,#56b4e9,,-0.1,0,#009e73,#e69f00,,0,0.1,#d55e00,#d55e00,,A4QX9VKEF9IG0,001,2020-12-12_09h47.21.505,change-localization,2020.1.2,Linux x86_64,60,,,0,49,49,49,1,,
,,,,,,,,,,,,,,,,,,,,,,,,,,,,,,,,,,,,,,,,,,,,A4QX9VKEF9IG0,001,2020-12-12_09h47.21.505,change-localization,2020.1.2,Linux x86_64,60,,,,,,,,c,23.42847
