key_resp.keys,key_resp.rt,mouse.x,mouse.y,mouse.leftButton,mouse.midButton,mouse.rightButton,mouse.time,mouse.clicked_name,mouse.clicked_pos,training.thisRepN,training.thisTrialN,training.thisN,training.thisIndex,training.ran,trial,answer,height,width,x1,y1,stim_color1,probe_color1,copy_color1,x2,y2,stim_color2,probe_color2,copy_color2,x3,y3,stim_color3,probe_color3,copy_color3,x4,y4,stim_color4,probe_color4,copy_color4,x5,y5,stim_color5,probe_color5,copy_color5,participant,session,date,expName,psychopyVersion,OS,frameRate,key_resp_2.keys,key_resp_2.rt,trials.thisRepN,trials.thisTrialN,trials.thisN,trials.thisIndex,trials.ran,completion_keys.keys,completion_keys.rt
c,17.56439,0.191111163,-0.106944473,1,0,0,2.380605,probe4,"[0.2,-0.1]",0,0,0,0,1,1,probe4,0.05,0.05,0.1,0.2,#0072b2,#0072b2,#0072b2,0.1,-0.1,#e69f00,#e69f00,#e69f00,-0.1,-0.2,#cc79a7,#cc79a7,#cc79a7,0.2,-0.1,#4A4A4A,#f0e442,#FFFFFF,0.2,0,#009e73,#009e73,#009e73,A544FPX6FB2OS,001,2020-12-11_19h33.04.909,change-localization,2020.1.2,Win32,60,,,,,,,,,
,,0.107083381,-0.018750067,1,0,0,3.407255,probe3,"[0.1,0]",0,1,1,1,1,2,probe1,0.05,0.05,0.2,0,#d55e00,#009e73,#FFFFFF,0.2,-0.1,#e69f00,#e69f00,#e69f00,0.1,0,#4A4A4A,#4A4A4A,#4A4A4A,-0.1,0.1,#56b4e9,#56b4e9,#56b4e9,-0.1,0,#cc79a7,#cc79a7,#cc79a7,A544FPX6FB2OS,001,2020-12-11_19h33.04.909,change-localization,2020.1.2,Win32,60,,,,,,,,,
,,-0.185277702,-0.20069452,1,0,0,1.0651,probe1,"[-0.2,-0.2]",0,2,2,2,1,3,probe1,0.05,0.05,-0.2,-0.2,#f0e442,#009e73,#FFFFFF,0.2,-0.1,#d55e00,#d55e00,#d55e00,-0.2,0,#4A4A4A,#4A4A4A,#4A4A4A,-0.1,-0.1,#0072b2,#0072b2,#0072b2,0,-0.1,#56b4e9,#56b4e9,#56b4e9,A544FPX6FB2OS,001,2020-12-11_19h33.04.909,change-localization,2020.1.2,Win32,60,,,,,,,,,
,,0.216111164,0.202777764,1,0,0,1.745655,probe1,"[0.2,0.2]",0,3,3,3,1,4,probe1,0.05,0.05,0.2,0.2,#d55e00,#56b4e9,#FFFFFF,-0.2,0.2,#f0e442,#f0e442,#f0e442,0.2,-0.2,#0072b2,#0072b2,#0072b2,-0.2,0,#cc79a7,#cc79a7,#cc79a7,-0.2,0.1,#4A4A4A,#4A4A4A,#4A4A4A,A544FPX6FB2OS,001,2020-12-11_19h33.04.909,change-localization,2020.1.2,Win32,60,,,,,,,,,
,,-0.084583295,-0.120138961,1,0,0,1.05045,probe4,"[-0.1,-0.1]",0,4,4,4,1,5,probe3,0.05,0.05,-0.2,0.1,#56b4e9,#56b4e9,#56b4e9,0,0.2,#009e73,#009e73,#009e73,0,0.1,#0072b2,#cc79a7,#FFFFFF,-0.1,-0.1,#4A4A4A,#4A4A4A,#4A4A4A,0.2,0,#f0e442,#f0e442,#f0e442,A544FPX6FB2OS,001,2020-12-11_19h33.04.909,change-localization,2020.1.2,Win32,60,,,,,,,,,
,,0.02097235,-0.193750033,1,0,0,0.9055,probe4,"[0,-0.2]",0,5,5,5,1,6,probe5,0.05,0.05,-0.1,0.1,#f0e442,#f0e442,#f0e442,0,0.1,#009e73,#009e73,#009e73,-0.2,0,#4A4A4A,#4A4A4A,#4A4A4A,0,-0.2,#d55e00,#d55e00,#d55e00,0.1,0,#cc79a7,#0072b2,#FFFFFF,A544FPX6FB2OS,001,2020-12-11_19h33.04.909,change-localization,2020.1.2,Win32,60,,,,,,,,,
,,-0.221388857,0.176388852,1,0,0,1.6395,probe4,"[-0.2,0.2]",0,6,6,6,1,7,probe2,0.05,0.05,-0.2,-0.2,#4A4A4A,#4A4A4A,#4A4A4A,0.1,0.2,#0072b2,#d55e00,#FFFFFF,-0.1,-0.2,#f0e442,#f0e442,#f0e442,-0.2,0.2,#009e73,#009e73,#009e73,0.2,0.2,#e69f00,#e69f00,#e69f00,A544FPX6FB2OS,001,2020-12-11_19h33.04.909,change-localization,2020.1.2,Win32,60,,,,,,,,,
,,0.109861159,-0.207638965,1,0,0,1.01128,probe1,"[0.1,-0.2]",0,7,7,7,1,8,probe1,0.05,0.05,0.1,-0.2,#009e73,#f0e442,#FFFFFF,-0.1,0,#d55e00,#d55e00,#d55e00,-0.1,0.1,#4A4A4A,#4A4A4A,#4A4A4A,-0.2,0,#cc79a7,#cc79a7,#cc79a7,0.2,0,#e69f00,#e69f00,#e69f00,A544FPX6FB2OS,001,2020-12-11_19h33.04.909,change-localization,2020.1.2,Win32,60,,,,,,,,,
,,0.092500132,-0.209722298,1,0,0,1.07453,probe1,"[0.1,-0.2]",0,8,8,8,1,9,probe1,0.05,0.05,0.1,-0.2,#0072b2,#e69f00,#FFFFFF,-0.1,0.2,#f0e442,#f0e442,#f0e442,-0.2,0.1,#d55e00,#d55e00,#d55e00,0.2,0.2,#cc79a7,#cc79a7,#cc79a7,0.1,0.1,#56b4e9,#56b4e9,#56b4e9,A544FPX6FB2OS,001,2020-12-11_19h33.04.909,change-localization,2020.1.2,Win32,60,,,,,,,,,
,,0.000833376,0.20694443,1,0,0,2.35313,probe2,"[0,0.2]",0,9,9,9,1,10,probe1,0.05,0.05,-0.1,-0.1,#4A4A4A,#f0e442,#FFFFFF,0,0.2,#cc79a7,#cc79a7,#cc79a7,0.2,-0.2,#e69f00,#e69f00,#e69f00,0.1,-0.2,#009e73,#009e73,#009e73,0.1,0.1,#d55e00,#d55e00,#d55e00,A544FPX6FB2OS,001,2020-12-11_19h33.04.909,change-localization,2020.1.2,Win32,60,,,,,,,,,
,,-0.088055517,0.197222208,1,0,0,1.146615,probe2,"[-0.1,0.2]",,,,,,1,probe2,0.05,0.05,-0.2,0.2,#009e73,#009e73,,-0.1,0.2,#f0e442,#e69f00,,-0.1,0,#0072b2,#0072b2,,0,-0.2,#cc79a7,#cc79a7,,0,0.2,#d55e00,#d55e00,,A544FPX6FB2OS,001,2020-12-11_19h33.04.909,change-localization,2020.1.2,Win32,60,c,3.66323,0,0,0,0,1,,
,,0.009166709,-0.113194474,1,0,0,1.34231,probe5,"[0,-0.1]",,,,,,2,probe5,0.05,0.05,0,0.1,#009e73,#009e73,,0.2,0.1,#4A4A4A,#4A4A4A,,-0.1,-0.1,#cc79a7,#cc79a7,,0.1,0.1,#d55e00,#d55e00,,0,-0.1,#56b4e9,#e69f00,,A544FPX6FB2OS,001,2020-12-11_19h33.04.909,change-localization,2020.1.2,Win32,60,,,0,1,1,1,1,,
,,-0.103333296,0.083333313,1,0,0,1.184845,probe4,"[-0.1,0.1]",,,,,,3,probe4,0.05,0.05,0.1,-0.1,#56b4e9,#56b4e9,,0.2,0,#f0e442,#f0e442,,0.2,-0.1,#e69f00,#e69f00,,-0.1,0.1,#4A4A4A,#009e73,,-0.1,0.2,#d55e00,#d55e00,,A544FPX6FB2OS,001,2020-12-11_19h33.04.909,change-localization,2020.1.2,Win32,60,,,0,2,2,2,1,,
,,-0.185277702,-0.006944469,1,0,0,1.21833,probe5,"[-0.2,0]",,,,,,4,probe5,0.05,0.05,0.2,0,#56b4e9,#56b4e9,,-0.2,-0.2,#cc79a7,#cc79a7,,0,0.2,#4A4A4A,#4A4A4A,,0.2,-0.2,#e69f00,#e69f00,,-0.2,0,#f0e442,#009e73,,A544FPX6FB2OS,001,2020-12-11_19h33.04.909,change-localization,2020.1.2,Win32,60,,,0,3,3,3,1,,
,,-0.121388852,-0.119444474,1,0,0,1.05535,probe3,"[-0.1,-0.1]",,,,,,5,probe3,0.05,0.05,-0.2,0.1,#4A4A4A,#4A4A4A,,0.2,0.2,#009e73,#009e73,,-0.1,-0.1,#0072b2,#f0e442,,0.2,0,#cc79a7,#cc79a7,,0.1,0.1,#e69f00,#e69f00,,A544FPX6FB2OS,001,2020-12-11_19h33.04.909,change-localization,2020.1.2,Win32,60,,,0,4,4,4,1,,
,,-0.01861107,0.186111075,1,0,0,1.21546,probe4,"[0,0.2]",,,,,,6,probe4,0.05,0.05,-0.1,0.1,#d55e00,#d55e00,,-0.2,0.2,#0072b2,#0072b2,,0,-0.1,#e69f00,#e69f00,,0,0.2,#56b4e9,#4A4A4A,,-0.2,-0.2,#009e73,#009e73,,A544FPX6FB2OS,001,2020-12-11_19h33.04.909,change-localization,2020.1.2,Win32,60,,,0,5,5,5,1,,
,,0.198750137,0.192361075,1,0,0,1.190825,probe4,"[0.2,0.2]",,,,,,7,probe4,0.05,0.05,0.2,-0.1,#56b4e9,#56b4e9,,-0.1,-0.1,#e69f00,#e69f00,,-0.2,0.2,#009e73,#009e73,,0.2,0.2,#cc79a7,#4A4A4A,,0.2,-0.2,#d55e00,#d55e00,,A544FPX6FB2OS,001,2020-12-11_19h33.04.909,change-localization,2020.1.2,Win32,60,,,0,6,6,6,1,,
,,0.200833385,-0.105555584,1,0,0,2.024935,probe5,"[0.2,-0.1]",,,,,,8,probe4,0.05,0.05,-0.2,0.1,#e69f00,#e69f00,,0.1,0.2,#cc79a7,#cc79a7,,0.2,0.1,#4A4A4A,#4A4A4A,,-0.2,0.2,#56b4e9,#d55e00,,0.2,-0.1,#0072b2,#0072b2,,A544FPX6FB2OS,001,2020-12-11_19h33.04.909,change-localization,2020.1.2,Win32,60,,,0,7,7,7,1,,
,,0.216805608,0.209722208,1,0,0,1.169405,probe5,"[0.2,0.2]",,,,,,9,probe5,0.05,0.05,-0.1,0,#4A4A4A,#4A4A4A,,0.1,0.1,#56b4e9,#56b4e9,,-0.2,0.1,#009e73,#009e73,,0.2,0.1,#cc79a7,#cc79a7,,0.2,0.2,#d55e00,#f0e442,,A544FPX6FB2OS,001,2020-12-11_19h33.04.909,change-localization,2020.1.2,Win32,60,,,0,8,8,8,1,,
,,0.000833376,0.088888827,1,0,0,1.116045,probe3,"[0,0.1]",,,,,,10,probe3,0.05,0.05,0.2,0.2,#f0e442,#f0e442,,0.1,-0.1,#e69f00,#e69f00,,0,0.1,#cc79a7,#4A4A4A,,-0.2,0.1,#56b4e9,#56b4e9,,0.2,0,#0072b2,#0072b2,,A544FPX6FB2OS,001,2020-12-11_19h33.04.909,change-localization,2020.1.2,Win32,60,,,0,9,9,9,1,,
,,0.103611158,-0.200000033,1,0,0,1.50388,probe5,"[0.1,-0.2]",,,,,,11,probe5,0.05,0.05,0.2,0.2,#4A4A4A,#4A4A4A,,0.1,0.2,#0072b2,#0072b2,,0.1,-0.1,#cc79a7,#cc79a7,,0,-0.2,#009e73,#009e73,,0.1,-0.2,#f0e442,#d55e00,,A544FPX6FB2OS,001,2020-12-11_19h33.04.909,change-localization,2020.1.2,Win32,60,,,0,10,10,10,1,,
,,0.117500133,-0.006250067,1,0,0,1.618015,probe4,"[0.1,0]",,,,,,12,probe4,0.05,0.05,-0.1,-0.1,#009e73,#009e73,,-0.1,0,#56b4e9,#56b4e9,,-0.1,-0.2,#0072b2,#0072b2,,0.1,0,#d55e00,#f0e442,,0,-0.1,#cc79a7,#cc79a7,,A544FPX6FB2OS,001,2020-12-11_19h33.04.909,change-localization,2020.1.2,Win32,60,,,0,11,11,11,1,,
,,-0.195694411,0.199999965,1,0,0,1.184475,probe4,"[-0.2,0.2]",,,,,,13,probe4,0.05,0.05,0,-0.1,#f0e442,#f0e442,,0.1,-0.1,#d55e00,#d55e00,,0.1,0.1,#0072b2,#0072b2,,-0.2,0.2,#cc79a7,#4A4A4A,,0.1,0.2,#009e73,#009e73,,A544FPX6FB2OS,001,2020-12-11_19h33.04.909,change-localization,2020.1.2,Win32,60,,,0,12,12,12,1,,
,,0.093888936,0.187499964,1,0,0,0.997285,probe5,"[0.1,0.2]",,,,,,14,probe5,0.05,0.05,0,0.2,#cc79a7,#cc79a7,,0,-0.1,#4A4A4A,#4A4A4A,,-0.2,0,#56b4e9,#56b4e9,,0.1,0.1,#0072b2,#0072b2,,0.1,0.2,#009e73,#e69f00,,A544FPX6FB2OS,001,2020-12-11_19h33.04.909,change-localization,2020.1.2,Win32,60,,,0,13,13,13,1,,
,,0.006388932,0.187499964,1,0,0,1.106385,probe2,"[0,0.2]",,,,,,15,probe3,0.05,0.05,0.2,0.2,#cc79a7,#cc79a7,,0,0.2,#56b4e9,#56b4e9,,0.2,0.1,#d55e00,#4A4A4A,,0.1,-0.1,#f0e442,#f0e442,,0.2,-0.1,#0072b2,#0072b2,,A544FPX6FB2OS,001,2020-12-11_19h33.04.909,change-localization,2020.1.2,Win32,60,,,0,14,14,14,1,,
,,0.113333381,0.090972203,1,0,0,1.082195,probe3,"[0.1,0.1]",,,,,,16,probe3,0.05,0.05,-0.2,-0.1,#f0e442,#f0e442,,-0.2,0.2,#d55e00,#d55e00,,0.1,0.1,#009e73,#4A4A4A,,-0.2,0.1,#56b4e9,#56b4e9,,0,-0.1,#cc79a7,#cc79a7,,A544FPX6FB2OS,001,2020-12-11_19h33.04.909,change-localization,2020.1.2,Win32,60,,,0,15,15,15,1,,
,,0.009166709,0.103472203,1,0,0,0.95056,probe3,"[0,0.1]",,,,,,17,probe3,0.05,0.05,0.2,-0.1,#cc79a7,#cc79a7,,0,-0.2,#0072b2,#0072b2,,0,0.1,#4A4A4A,#e69f00,,-0.2,-0.1,#f0e442,#f0e442,,-0.1,-0.1,#009e73,#009e73,,A544FPX6FB2OS,001,2020-12-11_19h33.04.909,change-localization,2020.1.2,Win32,60,,,0,16,16,16,1,,
,,0.106388936,-0.08750007,1,0,0,1.20561,probe4,"[0.1,-0.1]",,,,,,18,probe3,0.05,0.05,-0.1,0.1,#d55e00,#d55e00,,-0.1,0.2,#e69f00,#e69f00,,0.2,0,#009e73,#0072b2,,0.1,-0.1,#cc79a7,#cc79a7,,-0.2,0.2,#4A4A4A,#4A4A4A,,A544FPX6FB2OS,001,2020-12-11_19h33.04.909,change-localization,2020.1.2,Win32,60,,,0,17,17,17,1,,
,,-0.099861073,0.091666647,1,0,0,0.99928,probe3,"[-0.1,0.1]",,,,,,19,probe3,0.05,0.05,-0.1,0.2,#0072b2,#0072b2,,0,-0.1,#4A4A4A,#4A4A4A,,-0.1,0.1,#e69f00,#009e73,,0.2,0.1,#d55e00,#d55e00,,-0.2,0.1,#cc79a7,#cc79a7,,A544FPX6FB2OS,001,2020-12-11_19h33.04.909,change-localization,2020.1.2,Win32,60,,,0,18,18,18,1,,
,,-0.20472219,-0.202083367,1,0,0,1.452855,probe3,"[-0.2,-0.2]",,,,,,20,probe4,0.05,0.05,0.2,0,#56b4e9,#56b4e9,,-0.1,0.2,#009e73,#009e73,,-0.2,-0.2,#e69f00,#e69f00,,0,-0.1,#f0e442,#cc79a7,,-0.1,0,#4A4A4A,#4A4A4A,,A544FPX6FB2OS,001,2020-12-11_19h33.04.909,change-localization,2020.1.2,Win32,60,,,0,19,19,19,1,,
,,0.191805607,0.000694421,1,0,0,1.37621,probe3,"[0.2,0]",,,,,,21,probe3,0.05,0.05,-0.1,0.1,#0072b2,#0072b2,,-0.1,0.2,#009e73,#009e73,,0.2,0,#56b4e9,#4A4A4A,,-0.2,0.2,#f0e442,#f0e442,,0.2,0.1,#d55e00,#d55e00,,A544FPX6FB2OS,001,2020-12-11_19h33.04.909,change-localization,2020.1.2,Win32,60,,,0,20,20,20,1,,
,,-0.18805548,-0.097916695,1,0,0,1.2329,probe4,"[-0.2,-0.1]",,,,,,22,probe4,0.05,0.05,0.2,-0.1,#d55e00,#d55e00,,0.2,0,#56b4e9,#56b4e9,,0.1,-0.2,#cc79a7,#cc79a7,,-0.2,-0.1,#4A4A4A,#009e73,,0,-0.2,#e69f00,#e69f00,,A544FPX6FB2OS,001,2020-12-11_19h33.04.909,change-localization,2020.1.2,Win32,60,,,0,21,21,21,1,,
,,-0.194999967,-0.204166743,1,0,0,1.466945,probe4,"[-0.2,-0.2]",,,,,,23,probe4,0.05,0.05,0.1,0.1,#56b4e9,#56b4e9,,-0.2,-0.1,#0072b2,#0072b2,,0.2,0,#d55e00,#d55e00,,-0.2,-0.2,#cc79a7,#009e73,,0.1,-0.2,#4A4A4A,#4A4A4A,,A544FPX6FB2OS,001,2020-12-11_19h33.04.909,change-localization,2020.1.2,Win32,60,,,0,22,22,22,1,,
,,0.089027909,0.086805536,1,0,0,1.40897,probe4,"[0.1,0.1]",,,,,,24,probe2,0.05,0.05,-0.1,-0.2,#4A4A4A,#4A4A4A,,0.2,0.2,#d55e00,#e69f00,,0.1,-0.1,#f0e442,#f0e442,,0.1,0.1,#56b4e9,#56b4e9,,-0.2,0.1,#cc79a7,#cc79a7,,A544FPX6FB2OS,001,2020-12-11_19h33.04.909,change-localization,2020.1.2,Win32,60,,,0,23,23,23,1,,
,,0.207083386,0.00208331,1,0,0,1.337375,probe3,"[0.2,0]",,,,,,25,probe3,0.05,0.05,-0.2,-0.2,#f0e442,#f0e442,,-0.1,-0.1,#4A4A4A,#4A4A4A,,0.2,0,#d55e00,#cc79a7,,0,0.2,#0072b2,#0072b2,,-0.2,0.1,#009e73,#009e73,,A544FPX6FB2OS,001,2020-12-11_19h33.04.909,change-localization,2020.1.2,Win32,60,,,0,24,24,24,1,,
,,-0.11166663,-0.20069452,1,0,0,1.06055,probe3,"[-0.1,-0.2]",,,,,,26,probe3,0.05,0.05,0.1,-0.1,#e69f00,#e69f00,,-0.2,0,#56b4e9,#56b4e9,,-0.1,-0.2,#009e73,#d55e00,,-0.2,-0.1,#4A4A4A,#4A4A4A,,0.1,0,#cc79a7,#cc79a7,,A544FPX6FB2OS,001,2020-12-11_19h33.04.909,change-localization,2020.1.2,Win32,60,,,0,25,25,25,1,,
,,-0.21097219,-0.103472251,1,0,0,1.176555,probe5,"[-0.2,-0.1]",,,,,,27,probe5,0.05,0.05,-0.1,-0.2,#009e73,#009e73,,0.2,0,#cc79a7,#cc79a7,,-0.1,-0.1,#e69f00,#e69f00,,0.1,0.1,#d55e00,#d55e00,,-0.2,-0.1,#4A4A4A,#0072b2,,A544FPX6FB2OS,001,2020-12-11_19h33.04.909,change-localization,2020.1.2,Win32,60,,,0,26,26,26,1,,
,,0.002222349,-0.20069452,1,0,0,1.715825,probe3,"[0,-0.2]",,,,,,28,probe5,0.05,0.05,-0.1,0.2,#009e73,#009e73,,-0.2,0.1,#56b4e9,#56b4e9,,0,-0.2,#d55e00,#d55e00,,0.1,0,#0072b2,#0072b2,,0.1,0.1,#f0e442,#e69f00,,A544FPX6FB2OS,001,2020-12-11_19h33.04.909,change-localization,2020.1.2,Win32,60,,,0,27,27,27,1,,
,,-0.107499963,-0.100000071,1,0,0,1.8261,probe3,"[-0.1,-0.1]",,,,,,29,probe1,0.05,0.05,0.1,-0.1,#4A4A4A,#56b4e9,,-0.2,0.2,#e69f00,#e69f00,,-0.1,-0.1,#f0e442,#f0e442,,0.1,0.2,#0072b2,#0072b2,,-0.1,-0.2,#cc79a7,#cc79a7,,A544FPX6FB2OS,001,2020-12-11_19h33.04.909,change-localization,2020.1.2,Win32,60,,,0,28,28,28,1,,
,,-0.098472185,-0.192361144,1,0,0,1.001275,probe2,"[-0.1,-0.2]",,,,,,30,probe2,0.05,0.05,0.1,0.2,#f0e442,#f0e442,,-0.1,-0.2,#d55e00,#4A4A4A,,0,-0.2,#cc79a7,#cc79a7,,0.1,-0.2,#0072b2,#0072b2,,-0.2,0,#009e73,#009e73,,A544FPX6FB2OS,001,2020-12-11_19h33.04.909,change-localization,2020.1.2,Win32,60,,,0,29,29,29,1,,
,,0.098055603,0.000694421,1,0,0,1.721405,probe2,"[0.1,0]",,,,,,31,probe5,0.05,0.05,0,-0.2,#d55e00,#d55e00,,0.1,0,#e69f00,#e69f00,,0.1,0.2,#f0e442,#f0e442,,-0.2,-0.1,#cc79a7,#cc79a7,,-0.1,-0.1,#009e73,#4A4A4A,,A544FPX6FB2OS,001,2020-12-11_19h33.04.909,change-localization,2020.1.2,Win32,60,,,0,30,30,30,1,,
,,0.225833386,0.192361075,1,0,0,1.24164,probe1,"[0.2,0.2]",,,,,,32,probe3,0.05,0.05,0.2,0.2,#56b4e9,#56b4e9,,-0.1,-0.1,#009e73,#009e73,,0.2,0.1,#cc79a7,#0072b2,,-0.2,0.1,#4A4A4A,#4A4A4A,,-0.2,-0.1,#f0e442,#f0e442,,A544FPX6FB2OS,001,2020-12-11_19h33.04.909,change-localization,2020.1.2,Win32,60,,,0,31,31,31,1,,
,,-0.121388852,-0.10486114,1,0,0,1.427525,probe1,"[-0.1,-0.1]",,,,,,33,probe3,0.05,0.05,-0.1,-0.1,#0072b2,#0072b2,,0.1,0.1,#cc79a7,#cc79a7,,-0.1,0.1,#f0e442,#009e73,,0,-0.2,#56b4e9,#56b4e9,,0.1,0.2,#e69f00,#e69f00,,A544FPX6FB2OS,001,2020-12-11_19h33.04.909,change-localization,2020.1.2,Win32,60,,,0,32,32,32,1,,
,,0.192500136,0.096527759,1,0,0,1.62804,probe1,"[0.2,0.1]",,,,,,34,probe5,0.05,0.05,0.2,0.1,#e69f00,#e69f00,,-0.2,0.1,#cc79a7,#cc79a7,,0.1,-0.2,#0072b2,#0072b2,,0.2,-0.2,#d55e00,#d55e00,,-0.2,0,#56b4e9,#009e73,,A544FPX6FB2OS,001,2020-12-11_19h33.04.909,change-localization,2020.1.2,Win32,60,,,0,33,33,33,1,,
,,0.211250137,-0.109722251,1,0,0,1.56833,probe2,"[0.2,-0.1]",,,,,,35,probe2,0.05,0.05,0.2,0,#56b4e9,#56b4e9,,0.2,-0.1,#e69f00,#009e73,,0.1,-0.1,#f0e442,#f0e442,,0,0.2,#d55e00,#d55e00,,0.1,0.2,#cc79a7,#cc79a7,,A544FPX6FB2OS,001,2020-12-11_19h33.04.909,change-localization,2020.1.2,Win32,60,,,0,34,34,34,1,,
,,-0.201944412,-0.110416696,1,0,0,1.15132,probe3,"[-0.2,-0.1]",,,,,,36,probe3,0.05,0.05,0,0.1,#4A4A4A,#4A4A4A,,0.2,0.1,#009e73,#009e73,,-0.2,-0.1,#f0e442,#56b4e9,,-0.1,-0.1,#e69f00,#e69f00,,0.1,0,#0072b2,#0072b2,,A544FPX6FB2OS,001,2020-12-11_19h33.04.909,change-localization,2020.1.2,Win32,60,,,0,35,35,35,1,,
,,0.118194492,0.002777754,1,0,0,1.17286,probe5,"[0.1,0]",,,,,,37,probe5,0.05,0.05,-0.2,0.1,#e69f00,#e69f00,,0.1,0.1,#0072b2,#0072b2,,-0.2,0,#d55e00,#d55e00,,-0.1,0.2,#cc79a7,#cc79a7,,0.1,0,#009e73,#f0e442,,A544FPX6FB2OS,001,2020-12-11_19h33.04.909,change-localization,2020.1.2,Win32,60,,,0,36,36,36,1,,
,,0.11472227,-0.003472246,1,0,0,1.419935,probe4,"[0.1,0]",,,,,,38,probe4,0.05,0.05,0.2,-0.2,#4A4A4A,#4A4A4A,,0.2,0,#0072b2,#0072b2,,0.1,-0.1,#e69f00,#e69f00,,0.1,0,#d55e00,#cc79a7,,0,-0.1,#009e73,#009e73,,A544FPX6FB2OS,001,2020-12-11_19h33.04.909,change-localization,2020.1.2,Win32,60,,,0,37,37,37,1,,
,,-0.199861036,0.195138874,1,0,0,1.417295,probe4,"[-0.2,0.2]",,,,,,39,probe4,0.05,0.05,0.1,-0.1,#e69f00,#e69f00,,-0.2,-0.1,#cc79a7,#cc79a7,,0.2,0.1,#d55e00,#d55e00,,-0.2,0.2,#56b4e9,#f0e442,,0,-0.1,#0072b2,#0072b2,,A544FPX6FB2OS,001,2020-12-11_19h33.04.909,change-localization,2020.1.2,Win32,60,,,0,38,38,38,1,,
,,-0.191527702,0.100694425,1,0,0,1.037035,probe1,"[-0.2,0.1]",,,,,,40,probe1,0.05,0.05,-0.2,0.1,#4A4A4A,#d55e00,,0.2,0.2,#009e73,#009e73,,-0.1,-0.1,#cc79a7,#cc79a7,,0.2,-0.2,#e69f00,#e69f00,,0.1,-0.1,#56b4e9,#56b4e9,,A544FPX6FB2OS,001,2020-12-11_19h33.04.909,change-localization,2020.1.2,Win32,60,,,0,39,39,39,1,,
,,-0.121388852,-0.009722247,1,0,0,1.05546,probe4,"[-0.1,0]",,,,,,41,probe4,0.05,0.05,0.2,0.1,#009e73,#009e73,,-0.2,-0.1,#0072b2,#0072b2,,-0.2,-0.2,#56b4e9,#56b4e9,,-0.1,0,#f0e442,#cc79a7,,0,-0.2,#d55e00,#d55e00,,A544FPX6FB2OS,001,2020-12-11_19h33.04.909,change-localization,2020.1.2,Win32,60,,,0,40,40,40,1,,
,,0.006388932,-0.193750033,1,0,0,1.21921,probe4,"[0,-0.2]",,,,,,42,probe4,0.05,0.05,-0.1,-0.2,#009e73,#009e73,,-0.1,0.1,#cc79a7,#cc79a7,,0.1,0.1,#56b4e9,#56b4e9,,0,-0.2,#e69f00,#d55e00,,-0.1,0,#0072b2,#0072b2,,A544FPX6FB2OS,001,2020-12-11_19h33.04.909,change-localization,2020.1.2,Win32,60,,,0,41,41,41,1,,
,,-0.180416633,0.086805536,1,0,0,1.218535,probe5,"[-0.2,0.1]",,,,,,43,probe1,0.05,0.05,0.2,-0.1,#e69f00,#009e73,,0.1,0,#cc79a7,#cc79a7,,-0.2,-0.2,#f0e442,#f0e442,,0.2,-0.2,#56b4e9,#56b4e9,,-0.2,0.1,#4A4A4A,#4A4A4A,,A544FPX6FB2OS,001,2020-12-11_19h33.04.909,change-localization,2020.1.2,Win32,60,,,0,42,42,42,1,,
,,-0.090138851,0.188888874,1,0,0,1.312755,probe1,"[-0.1,0.2]",,,,,,44,probe1,0.05,0.05,-0.1,0.2,#56b4e9,#e69f00,,0.2,0.1,#4A4A4A,#4A4A4A,,0.1,0,#cc79a7,#cc79a7,,0.1,0.2,#f0e442,#f0e442,,-0.1,-0.1,#d55e00,#d55e00,,A544FPX6FB2OS,001,2020-12-11_19h33.04.909,change-localization,2020.1.2,Win32,60,,,0,43,43,43,1,,
,,-0.087361073,0.099999981,1,0,0,1.100235,probe3,"[-0.1,0.1]",,,,,,45,probe3,0.05,0.05,-0.2,0.2,#0072b2,#0072b2,,-0.2,-0.1,#56b4e9,#56b4e9,,-0.1,0.1,#f0e442,#e69f00,,-0.1,0.2,#d55e00,#d55e00,,0,-0.2,#cc79a7,#cc79a7,,A544FPX6FB2OS,001,2020-12-11_19h33.04.909,change-localization,2020.1.2,Win32,60,,,0,44,44,44,1,,
,,0.198750137,-0.004166691,1,0,0,1.253485,probe5,"[0.2,0]",,,,,,46,probe5,0.05,0.05,0.2,0.1,#0072b2,#0072b2,,0.1,0.2,#f0e442,#f0e442,,0.2,-0.2,#009e73,#009e73,,0.2,0.2,#4A4A4A,#4A4A4A,,0.2,0,#cc79a7,#e69f00,,A544FPX6FB2OS,001,2020-12-11_19h33.04.909,change-localization,2020.1.2,Win32,60,,,0,45,45,45,1,,
,,0.203611163,0.195833319,1,0,0,1.33294,probe3,"[0.2,0.2]",,,,,,47,probe3,0.05,0.05,0,-0.1,#009e73,#009e73,,-0.2,0.2,#f0e442,#f0e442,,0.2,0.2,#56b4e9,#cc79a7,,-0.1,0.2,#4A4A4A,#4A4A4A,,-0.1,0.1,#e69f00,#e69f00,,A544FPX6FB2OS,001,2020-12-11_19h33.04.909,change-localization,2020.1.2,Win32,60,,,0,46,46,46,1,,
,,-0.069305516,0.099999981,1,0,0,1.38613,probe2,"[-0.1,0.1]",,,,,,48,probe4,0.05,0.05,0.2,-0.2,#cc79a7,#cc79a7,,-0.1,0.1,#009e73,#009e73,,0.1,-0.2,#f0e442,#f0e442,,-0.2,-0.1,#d55e00,#0072b2,,-0.1,0,#56b4e9,#56b4e9,,A544FPX6FB2OS,001,2020-12-11_19h33.04.909,change-localization,2020.1.2,Win32,60,,,0,47,47,47,1,,
,,-0.013749874,-0.216666701,1,0,0,1.007545,probe1,"[0,-0.2]",,,,,,49,probe2,0.05,0.05,0,-0.2,#e69f00,#e69f00,,-0.2,0,#cc79a7,#0072b2,,-0.1,0.2,#f0e442,#f0e442,,0.1,0.2,#4A4A4A,#4A4A4A,,-0.1,-0.1,#56b4e9,#56b4e9,,A544FPX6FB2OS,001,2020-12-11_19h33.04.909,change-localization,2020.1.2,Win32,60,,,0,48,48,48,1,,
,,-0.072083294,0.019444422,1,0,0,0.786965,probe4,"[-0.1,0]",,,,,,50,probe4,0.05,0.05,0.2,0.1,#0072b2,#0072b2,,0.1,0.1,#cc79a7,#cc79a7,,0.1,-0.2,#56b4e9,#56b4e9,,-0.1,0,#009e73,#e69f00,,0,0.1,#d55e00,#d55e00,,A544FPX6FB2OS,001,2020-12-11_19h33.04.909,change-localization,2020.1.2,Win32,60,,,0,49,49,49,1,,
,,,,,,,,,,,,,,,,,,,,,,,,,,,,,,,,,,,,,,,,,,,,A544FPX6FB2OS,001,2020-12-11_19h33.04.909,change-localization,2020.1.2,Win32,60,,,,,,,,c,12.508205
