key_resp.keys,key_resp.rt,mouse.x,mouse.y,mouse.leftButton,mouse.midButton,mouse.rightButton,mouse.time,mouse.clicked_name,mouse.clicked_pos,training.thisRepN,training.thisTrialN,training.thisN,training.thisIndex,training.ran,trial,answer,height,width,x1,y1,stim_color1,probe_color1,copy_color1,x2,y2,stim_color2,probe_color2,copy_color2,x3,y3,stim_color3,probe_color3,copy_color3,x4,y4,stim_color4,probe_color4,copy_color4,x5,y5,stim_color5,probe_color5,copy_color5,participant,session,date,expName,psychopyVersion,OS,frameRate,key_resp_2.keys,key_resp_2.rt,trials.thisRepN,trials.thisTrialN,trials.thisN,trials.thisIndex,trials.ran,completion_keys.keys,completion_keys.rt
c,9.32063,0.203333333,0.013333333,1,0,0,2.248905,probe5,"[0.2,0]",0,0,0,0,1,1,probe4,0.05,0.05,0.1,0.2,#0072b2,#0072b2,#0072b2,0.1,-0.1,#e69f00,#e69f00,#e69f00,-0.1,-0.2,#cc79a7,#cc79a7,#cc79a7,0.2,-0.1,#4A4A4A,#f0e442,#FFFFFF,0.2,0,#009e73,#009e73,#009e73,A77K8W55MJEKX,001,2020-12-11_22h13.14.013,change-localization,2020.1.2,Win32,60,,,,,,,,,
,,0.211111111,-0.005555556,1,0,0,1.2152,probe1,"[0.2,0]",0,1,1,1,1,2,probe1,0.05,0.05,0.2,0,#d55e00,#009e73,#FFFFFF,0.2,-0.1,#e69f00,#e69f00,#e69f00,0.1,0,#4A4A4A,#4A4A4A,#4A4A4A,-0.1,0.1,#56b4e9,#56b4e9,#56b4e9,-0.1,0,#cc79a7,#cc79a7,#cc79a7,A77K8W55MJEKX,001,2020-12-11_22h13.14.013,change-localization,2020.1.2,Win32,60,,,,,,,,,
,,-0.21,-0.211111111,1,0,0,0.98402,probe1,"[-0.2,-0.2]",0,2,2,2,1,3,probe1,0.05,0.05,-0.2,-0.2,#f0e442,#009e73,#FFFFFF,0.2,-0.1,#d55e00,#d55e00,#d55e00,-0.2,0,#4A4A4A,#4A4A4A,#4A4A4A,-0.1,-0.1,#0072b2,#0072b2,#0072b2,0,-0.1,#56b4e9,#56b4e9,#56b4e9,A77K8W55MJEKX,001,2020-12-11_22h13.14.013,change-localization,2020.1.2,Win32,60,,,,,,,,,
,,0.198888889,0.205555556,1,0,0,2.92317,probe1,"[0.2,0.2]",0,3,3,3,1,4,probe1,0.05,0.05,0.2,0.2,#d55e00,#56b4e9,#FFFFFF,-0.2,0.2,#f0e442,#f0e442,#f0e442,0.2,-0.2,#0072b2,#0072b2,#0072b2,-0.2,0,#cc79a7,#cc79a7,#cc79a7,-0.2,0.1,#4A4A4A,#4A4A4A,#4A4A4A,A77K8W55MJEKX,001,2020-12-11_22h13.14.013,change-localization,2020.1.2,Win32,60,,,,,,,,,
,,0.01,0.197777778,1,0,0,1.928665,probe2,"[0,0.2]",0,4,4,4,1,5,probe3,0.05,0.05,-0.2,0.1,#56b4e9,#56b4e9,#56b4e9,0,0.2,#009e73,#009e73,#009e73,0,0.1,#0072b2,#cc79a7,#FFFFFF,-0.1,-0.1,#4A4A4A,#4A4A4A,#4A4A4A,0.2,0,#f0e442,#f0e442,#f0e442,A77K8W55MJEKX,001,2020-12-11_22h13.14.013,change-localization,2020.1.2,Win32,60,,,,,,,,,
,,0.005555556,0.088888889,1,0,0,1.07947,probe2,"[0,0.1]",0,5,5,5,1,6,probe5,0.05,0.05,-0.1,0.1,#f0e442,#f0e442,#f0e442,0,0.1,#009e73,#009e73,#009e73,-0.2,0,#4A4A4A,#4A4A4A,#4A4A4A,0,-0.2,#d55e00,#d55e00,#d55e00,0.1,0,#cc79a7,#0072b2,#FFFFFF,A77K8W55MJEKX,001,2020-12-11_22h13.14.013,change-localization,2020.1.2,Win32,60,,,,,,,,,
,,-0.188888889,0.193333333,1,0,0,0.61111,probe4,"[-0.2,0.2]",0,6,6,6,1,7,probe2,0.05,0.05,-0.2,-0.2,#4A4A4A,#4A4A4A,#4A4A4A,0.1,0.2,#0072b2,#d55e00,#FFFFFF,-0.1,-0.2,#f0e442,#f0e442,#f0e442,-0.2,0.2,#009e73,#009e73,#009e73,0.2,0.2,#e69f00,#e69f00,#e69f00,A77K8W55MJEKX,001,2020-12-11_22h13.14.013,change-localization,2020.1.2,Win32,60,,,,,,,,,
,,-0.1,0.108888889,1,0,0,5.459815,probe3,"[-0.1,0.1]",0,7,7,7,1,8,probe1,0.05,0.05,0.1,-0.2,#009e73,#f0e442,#FFFFFF,-0.1,0,#d55e00,#d55e00,#d55e00,-0.1,0.1,#4A4A4A,#4A4A4A,#4A4A4A,-0.2,0,#cc79a7,#cc79a7,#cc79a7,0.2,0,#e69f00,#e69f00,#e69f00,A77K8W55MJEKX,001,2020-12-11_22h13.14.013,change-localization,2020.1.2,Win32,60,,,,,,,,,
,,0.097777778,0.083333333,1,0,0,0.513475,probe5,"[0.1,0.1]",0,8,8,8,1,9,probe1,0.05,0.05,0.1,-0.2,#0072b2,#e69f00,#FFFFFF,-0.1,0.2,#f0e442,#f0e442,#f0e442,-0.2,0.1,#d55e00,#d55e00,#d55e00,0.2,0.2,#cc79a7,#cc79a7,#cc79a7,0.1,0.1,#56b4e9,#56b4e9,#56b4e9,A77K8W55MJEKX,001,2020-12-11_22h13.14.013,change-localization,2020.1.2,Win32,60,,,,,,,,,
,,0.177777778,-0.187777778,1,0,0,0.58094,probe3,"[0.2,-0.2]",0,9,9,9,1,10,probe1,0.05,0.05,-0.1,-0.1,#4A4A4A,#f0e442,#FFFFFF,0,0.2,#cc79a7,#cc79a7,#cc79a7,0.2,-0.2,#e69f00,#e69f00,#e69f00,0.1,-0.2,#009e73,#009e73,#009e73,0.1,0.1,#d55e00,#d55e00,#d55e00,A77K8W55MJEKX,001,2020-12-11_22h13.14.013,change-localization,2020.1.2,Win32,60,,,,,,,,,
,,-0.176666667,0.185555556,1,0,0,0.73683,probe1,"[-0.2,0.2]",,,,,,1,probe2,0.05,0.05,-0.2,0.2,#009e73,#009e73,,-0.1,0.2,#f0e442,#e69f00,,-0.1,0,#0072b2,#0072b2,,0,-0.2,#cc79a7,#cc79a7,,0,0.2,#d55e00,#d55e00,,A77K8W55MJEKX,001,2020-12-11_22h13.14.013,change-localization,2020.1.2,Win32,60,c,7.31313,0,0,0,0,1,,
,,0.004444444,0.095555556,1,0,0,1.773885,probe1,"[0,0.1]",,,,,,2,probe5,0.05,0.05,0,0.1,#009e73,#009e73,,0.2,0.1,#4A4A4A,#4A4A4A,,-0.1,-0.1,#cc79a7,#cc79a7,,0.1,0.1,#d55e00,#d55e00,,0,-0.1,#56b4e9,#e69f00,,A77K8W55MJEKX,001,2020-12-11_22h13.14.013,change-localization,2020.1.2,Win32,60,,,0,1,1,1,1,,
,,-0.082222222,0.101111111,1,0,0,0.96876,probe4,"[-0.1,0.1]",,,,,,3,probe4,0.05,0.05,0.1,-0.1,#56b4e9,#56b4e9,,0.2,0,#f0e442,#f0e442,,0.2,-0.1,#e69f00,#e69f00,,-0.1,0.1,#4A4A4A,#009e73,,-0.1,0.2,#d55e00,#d55e00,,A77K8W55MJEKX,001,2020-12-11_22h13.14.013,change-localization,2020.1.2,Win32,60,,,0,2,2,2,1,,
,,-0.195555556,-0.01,1,0,0,0.855355,probe5,"[-0.2,0]",,,,,,4,probe5,0.05,0.05,0.2,0,#56b4e9,#56b4e9,,-0.2,-0.2,#cc79a7,#cc79a7,,0,0.2,#4A4A4A,#4A4A4A,,0.2,-0.2,#e69f00,#e69f00,,-0.2,0,#f0e442,#009e73,,A77K8W55MJEKX,001,2020-12-11_22h13.14.013,change-localization,2020.1.2,Win32,60,,,0,3,3,3,1,,
,,0.211111111,0.201111111,1,0,0,0.683185,probe2,"[0.2,0.2]",,,,,,5,probe3,0.05,0.05,-0.2,0.1,#4A4A4A,#4A4A4A,,0.2,0.2,#009e73,#009e73,,-0.1,-0.1,#0072b2,#f0e442,,0.2,0,#cc79a7,#cc79a7,,0.1,0.1,#e69f00,#e69f00,,A77K8W55MJEKX,001,2020-12-11_22h13.14.013,change-localization,2020.1.2,Win32,60,,,0,4,4,4,1,,
,,-0.206666667,-0.2,1,0,0,0.659875,probe5,"[-0.2,-0.2]",,,,,,6,probe4,0.05,0.05,-0.1,0.1,#d55e00,#d55e00,,-0.2,0.2,#0072b2,#0072b2,,0,-0.1,#e69f00,#e69f00,,0,0.2,#56b4e9,#4A4A4A,,-0.2,-0.2,#009e73,#009e73,,A77K8W55MJEKX,001,2020-12-11_22h13.14.013,change-localization,2020.1.2,Win32,60,,,0,5,5,5,1,,
,,-0.191111111,0.185555556,1,0,0,0.499235,probe3,"[-0.2,0.2]",,,,,,7,probe4,0.05,0.05,0.2,-0.1,#56b4e9,#56b4e9,,-0.1,-0.1,#e69f00,#e69f00,,-0.2,0.2,#009e73,#009e73,,0.2,0.2,#cc79a7,#4A4A4A,,0.2,-0.2,#d55e00,#d55e00,,A77K8W55MJEKX,001,2020-12-11_22h13.14.013,change-localization,2020.1.2,Win32,60,,,0,6,6,6,1,,
,,0.076666667,0.201111111,1,0,0,7.1372,probe2,"[0.1,0.2]",,,,,,8,probe4,0.05,0.05,-0.2,0.1,#e69f00,#e69f00,,0.1,0.2,#cc79a7,#cc79a7,,0.2,0.1,#4A4A4A,#4A4A4A,,-0.2,0.2,#56b4e9,#d55e00,,0.2,-0.1,#0072b2,#0072b2,,A77K8W55MJEKX,001,2020-12-11_22h13.14.013,change-localization,2020.1.2,Win32,60,,,0,7,7,7,1,,
,,-0.183333333,0.114444444,1,0,0,0.43452,probe3,"[-0.2,0.1]",,,,,,9,probe5,0.05,0.05,-0.1,0,#4A4A4A,#4A4A4A,,0.1,0.1,#56b4e9,#56b4e9,,-0.2,0.1,#009e73,#009e73,,0.2,0.1,#cc79a7,#cc79a7,,0.2,0.2,#d55e00,#f0e442,,A77K8W55MJEKX,001,2020-12-11_22h13.14.013,change-localization,2020.1.2,Win32,60,,,0,8,8,8,1,,
,,-0.227777778,0.103333333,1,0,0,1.379685,probe4,"[-0.2,0.1]",,,,,,10,probe3,0.05,0.05,0.2,0.2,#f0e442,#f0e442,,0.1,-0.1,#e69f00,#e69f00,,0,0.1,#cc79a7,#4A4A4A,,-0.2,0.1,#56b4e9,#56b4e9,,0.2,0,#0072b2,#0072b2,,A77K8W55MJEKX,001,2020-12-11_22h13.14.013,change-localization,2020.1.2,Win32,60,,,0,9,9,9,1,,
,,-0.012222222,-0.203333333,1,0,0,1.207435,probe4,"[0,-0.2]",,,,,,11,probe5,0.05,0.05,0.2,0.2,#4A4A4A,#4A4A4A,,0.1,0.2,#0072b2,#0072b2,,0.1,-0.1,#cc79a7,#cc79a7,,0,-0.2,#009e73,#009e73,,0.1,-0.2,#f0e442,#d55e00,,A77K8W55MJEKX,001,2020-12-11_22h13.14.013,change-localization,2020.1.2,Win32,60,,,0,10,10,10,1,,
,,-0.092222222,-0.111111111,1,0,0,2.457875,probe1,"[-0.1,-0.1]",,,,,,12,probe4,0.05,0.05,-0.1,-0.1,#009e73,#009e73,,-0.1,0,#56b4e9,#56b4e9,,-0.1,-0.2,#0072b2,#0072b2,,0.1,0,#d55e00,#f0e442,,0,-0.1,#cc79a7,#cc79a7,,A77K8W55MJEKX,001,2020-12-11_22h13.14.013,change-localization,2020.1.2,Win32,60,,,0,11,11,11,1,,
,,0.103333333,0.182222222,1,0,0,0.68726,probe5,"[0.1,0.2]",,,,,,13,probe4,0.05,0.05,0,-0.1,#f0e442,#f0e442,,0.1,-0.1,#d55e00,#d55e00,,0.1,0.1,#0072b2,#0072b2,,-0.2,0.2,#cc79a7,#4A4A4A,,0.1,0.2,#009e73,#009e73,,A77K8W55MJEKX,001,2020-12-11_22h13.14.013,change-localization,2020.1.2,Win32,60,,,0,12,12,12,1,,
,,-0.211111111,-0.004444444,1,0,0,2.06162,probe3,"[-0.2,0]",,,,,,14,probe5,0.05,0.05,0,0.2,#cc79a7,#cc79a7,,0,-0.1,#4A4A4A,#4A4A4A,,-0.2,0,#56b4e9,#56b4e9,,0.1,0.1,#0072b2,#0072b2,,0.1,0.2,#009e73,#e69f00,,A77K8W55MJEKX,001,2020-12-11_22h13.14.013,change-localization,2020.1.2,Win32,60,,,0,13,13,13,1,,
,,0.031111111,0.222222222,1,0,0,6.419185,probe2,"[0,0.2]",,,,,,15,probe3,0.05,0.05,0.2,0.2,#cc79a7,#cc79a7,,0,0.2,#56b4e9,#56b4e9,,0.2,0.1,#d55e00,#4A4A4A,,0.1,-0.1,#f0e442,#f0e442,,0.2,-0.1,#0072b2,#0072b2,,A77K8W55MJEKX,001,2020-12-11_22h13.14.013,change-localization,2020.1.2,Win32,60,,,0,14,14,14,1,,
,,-0.177777778,0.098888889,1,0,0,3.29731,probe4,"[-0.2,0.1]",,,,,,16,probe3,0.05,0.05,-0.2,-0.1,#f0e442,#f0e442,,-0.2,0.2,#d55e00,#d55e00,,0.1,0.1,#009e73,#4A4A4A,,-0.2,0.1,#56b4e9,#56b4e9,,0,-0.1,#cc79a7,#cc79a7,,A77K8W55MJEKX,001,2020-12-11_22h13.14.013,change-localization,2020.1.2,Win32,60,,,0,15,15,15,1,,
,,0.006666667,0.095555556,1,0,0,2.651075,probe3,"[0,0.1]",,,,,,17,probe3,0.05,0.05,0.2,-0.1,#cc79a7,#cc79a7,,0,-0.2,#0072b2,#0072b2,,0,0.1,#4A4A4A,#e69f00,,-0.2,-0.1,#f0e442,#f0e442,,-0.1,-0.1,#009e73,#009e73,,A77K8W55MJEKX,001,2020-12-11_22h13.14.013,change-localization,2020.1.2,Win32,60,,,0,16,16,16,1,,
,,-0.095555556,0.092222222,1,0,0,4.155775,probe1,"[-0.1,0.1]",,,,,,18,probe3,0.05,0.05,-0.1,0.1,#d55e00,#d55e00,,-0.1,0.2,#e69f00,#e69f00,,0.2,0,#009e73,#0072b2,,0.1,-0.1,#cc79a7,#cc79a7,,-0.2,0.2,#4A4A4A,#4A4A4A,,A77K8W55MJEKX,001,2020-12-11_22h13.14.013,change-localization,2020.1.2,Win32,60,,,0,17,17,17,1,,
,,-0.087777778,0.096666667,1,0,0,0.677205,probe3,"[-0.1,0.1]",,,,,,19,probe3,0.05,0.05,-0.1,0.2,#0072b2,#0072b2,,0,-0.1,#4A4A4A,#4A4A4A,,-0.1,0.1,#e69f00,#009e73,,0.2,0.1,#d55e00,#d55e00,,-0.2,0.1,#cc79a7,#cc79a7,,A77K8W55MJEKX,001,2020-12-11_22h13.14.013,change-localization,2020.1.2,Win32,60,,,0,18,18,18,1,,
,,-0.095555556,0.176666667,1,0,0,0.508745,probe2,"[-0.1,0.2]",,,,,,20,probe4,0.05,0.05,0.2,0,#56b4e9,#56b4e9,,-0.1,0.2,#009e73,#009e73,,-0.2,-0.2,#e69f00,#e69f00,,0,-0.1,#f0e442,#cc79a7,,-0.1,0,#4A4A4A,#4A4A4A,,A77K8W55MJEKX,001,2020-12-11_22h13.14.013,change-localization,2020.1.2,Win32,60,,,0,19,19,19,1,,
,,-0.094444444,0.106666667,1,0,0,0.57425,probe1,"[-0.1,0.1]",,,,,,21,probe3,0.05,0.05,-0.1,0.1,#0072b2,#0072b2,,-0.1,0.2,#009e73,#009e73,,0.2,0,#56b4e9,#4A4A4A,,-0.2,0.2,#f0e442,#f0e442,,0.2,0.1,#d55e00,#d55e00,,A77K8W55MJEKX,001,2020-12-11_22h13.14.013,change-localization,2020.1.2,Win32,60,,,0,20,20,20,1,,
,,-0.204444444,-0.085555556,1,0,0,1.331725,probe4,"[-0.2,-0.1]",,,,,,22,probe4,0.05,0.05,0.2,-0.1,#d55e00,#d55e00,,0.2,0,#56b4e9,#56b4e9,,0.1,-0.2,#cc79a7,#cc79a7,,-0.2,-0.1,#4A4A4A,#009e73,,0,-0.2,#e69f00,#e69f00,,A77K8W55MJEKX,001,2020-12-11_22h13.14.013,change-localization,2020.1.2,Win32,60,,,0,21,21,21,1,,
,,-0.224444444,-0.194444444,1,0,0,1.55993,probe4,"[-0.2,-0.2]",,,,,,23,probe4,0.05,0.05,0.1,0.1,#56b4e9,#56b4e9,,-0.2,-0.1,#0072b2,#0072b2,,0.2,0,#d55e00,#d55e00,,-0.2,-0.2,#cc79a7,#009e73,,0.1,-0.2,#4A4A4A,#4A4A4A,,A77K8W55MJEKX,001,2020-12-11_22h13.14.013,change-localization,2020.1.2,Win32,60,,,0,22,22,22,1,,
,,0.197777778,0.191111111,1,0,0,4.328665,probe2,"[0.2,0.2]",,,,,,24,probe2,0.05,0.05,-0.1,-0.2,#4A4A4A,#4A4A4A,,0.2,0.2,#d55e00,#e69f00,,0.1,-0.1,#f0e442,#f0e442,,0.1,0.1,#56b4e9,#56b4e9,,-0.2,0.1,#cc79a7,#cc79a7,,A77K8W55MJEKX,001,2020-12-11_22h13.14.013,change-localization,2020.1.2,Win32,60,,,0,23,23,23,1,,
,,-0.195555556,0.097777778,1,0,0,0.77779,probe5,"[-0.2,0.1]",,,,,,25,probe3,0.05,0.05,-0.2,-0.2,#f0e442,#f0e442,,-0.1,-0.1,#4A4A4A,#4A4A4A,,0.2,0,#d55e00,#cc79a7,,0,0.2,#0072b2,#0072b2,,-0.2,0.1,#009e73,#009e73,,A77K8W55MJEKX,001,2020-12-11_22h13.14.013,change-localization,2020.1.2,Win32,60,,,0,24,24,24,1,,
,,-0.203333333,0.012222222,1,0,0,3.826935,probe2,"[-0.2,0]",,,,,,26,probe3,0.05,0.05,0.1,-0.1,#e69f00,#e69f00,,-0.2,0,#56b4e9,#56b4e9,,-0.1,-0.2,#009e73,#d55e00,,-0.2,-0.1,#4A4A4A,#4A4A4A,,0.1,0,#cc79a7,#cc79a7,,A77K8W55MJEKX,001,2020-12-11_22h13.14.013,change-localization,2020.1.2,Win32,60,,,0,25,25,25,1,,
,,-0.108888889,-0.197777778,1,0,0,3.99414,probe1,"[-0.1,-0.2]",,,,,,27,probe5,0.05,0.05,-0.1,-0.2,#009e73,#009e73,,0.2,0,#cc79a7,#cc79a7,,-0.1,-0.1,#e69f00,#e69f00,,0.1,0.1,#d55e00,#d55e00,,-0.2,-0.1,#4A4A4A,#0072b2,,A77K8W55MJEKX,001,2020-12-11_22h13.14.013,change-localization,2020.1.2,Win32,60,,,0,26,26,26,1,,
,,-0.104444444,0.187777778,1,0,0,0.5057,probe1,"[-0.1,0.2]",,,,,,28,probe5,0.05,0.05,-0.1,0.2,#009e73,#009e73,,-0.2,0.1,#56b4e9,#56b4e9,,0,-0.2,#d55e00,#d55e00,,0.1,0,#0072b2,#0072b2,,0.1,0.1,#f0e442,#e69f00,,A77K8W55MJEKX,001,2020-12-11_22h13.14.013,change-localization,2020.1.2,Win32,60,,,0,27,27,27,1,,
,,-0.106666667,-0.2,1,0,0,2.55183,probe5,"[-0.1,-0.2]",,,,,,29,probe1,0.05,0.05,0.1,-0.1,#4A4A4A,#56b4e9,,-0.2,0.2,#e69f00,#e69f00,,-0.1,-0.1,#f0e442,#f0e442,,0.1,0.2,#0072b2,#0072b2,,-0.1,-0.2,#cc79a7,#cc79a7,,A77K8W55MJEKX,001,2020-12-11_22h13.14.013,change-localization,2020.1.2,Win32,60,,,0,28,28,28,1,,
,,-0.198888889,0.001111111,1,0,0,1.99985,probe5,"[-0.2,0]",,,,,,30,probe2,0.05,0.05,0.1,0.2,#f0e442,#f0e442,,-0.1,-0.2,#d55e00,#4A4A4A,,0,-0.2,#cc79a7,#cc79a7,,0.1,-0.2,#0072b2,#0072b2,,-0.2,0,#009e73,#009e73,,A77K8W55MJEKX,001,2020-12-11_22h13.14.013,change-localization,2020.1.2,Win32,60,,,0,29,29,29,1,,
,,-0.191111111,-0.103333333,1,0,0,2.676605,probe4,"[-0.2,-0.1]",,,,,,31,probe5,0.05,0.05,0,-0.2,#d55e00,#d55e00,,0.1,0,#e69f00,#e69f00,,0.1,0.2,#f0e442,#f0e442,,-0.2,-0.1,#cc79a7,#cc79a7,,-0.1,-0.1,#009e73,#4A4A4A,,A77K8W55MJEKX,001,2020-12-11_22h13.14.013,change-localization,2020.1.2,Win32,60,,,0,30,30,30,1,,
,,-0.095555556,-0.097777778,1,0,0,1.507605,probe2,"[-0.1,-0.1]",,,,,,32,probe3,0.05,0.05,0.2,0.2,#56b4e9,#56b4e9,,-0.1,-0.1,#009e73,#009e73,,0.2,0.1,#cc79a7,#0072b2,,-0.2,0.1,#4A4A4A,#4A4A4A,,-0.2,-0.1,#f0e442,#f0e442,,A77K8W55MJEKX,001,2020-12-11_22h13.14.013,change-localization,2020.1.2,Win32,60,,,0,31,31,31,1,,
,,-0.098888889,0.114444444,1,0,0,1.584035,probe3,"[-0.1,0.1]",,,,,,33,probe3,0.05,0.05,-0.1,-0.1,#0072b2,#0072b2,,0.1,0.1,#cc79a7,#cc79a7,,-0.1,0.1,#f0e442,#009e73,,0,-0.2,#56b4e9,#56b4e9,,0.1,0.2,#e69f00,#e69f00,,A77K8W55MJEKX,001,2020-12-11_22h13.14.013,change-localization,2020.1.2,Win32,60,,,0,32,32,32,1,,
,,-0.206666667,-0.001111111,1,0,0,2.20576,probe5,"[-0.2,0]",,,,,,34,probe5,0.05,0.05,0.2,0.1,#e69f00,#e69f00,,-0.2,0.1,#cc79a7,#cc79a7,,0.1,-0.2,#0072b2,#0072b2,,0.2,-0.2,#d55e00,#d55e00,,-0.2,0,#56b4e9,#009e73,,A77K8W55MJEKX,001,2020-12-11_22h13.14.013,change-localization,2020.1.2,Win32,60,,,0,33,33,33,1,,
,,0.187777778,-0.093333333,1,0,0,4.019465,probe2,"[0.2,-0.1]",,,,,,35,probe2,0.05,0.05,0.2,0,#56b4e9,#56b4e9,,0.2,-0.1,#e69f00,#009e73,,0.1,-0.1,#f0e442,#f0e442,,0,0.2,#d55e00,#d55e00,,0.1,0.2,#cc79a7,#cc79a7,,A77K8W55MJEKX,001,2020-12-11_22h13.14.013,change-localization,2020.1.2,Win32,60,,,0,34,34,34,1,,
,,0.206666667,0.1,1,0,0,1.057275,probe2,"[0.2,0.1]",,,,,,36,probe3,0.05,0.05,0,0.1,#4A4A4A,#4A4A4A,,0.2,0.1,#009e73,#009e73,,-0.2,-0.1,#f0e442,#56b4e9,,-0.1,-0.1,#e69f00,#e69f00,,0.1,0,#0072b2,#0072b2,,A77K8W55MJEKX,001,2020-12-11_22h13.14.013,change-localization,2020.1.2,Win32,60,,,0,35,35,35,1,,
,,0.1,0.098888889,1,0,0,4.46158,probe2,"[0.1,0.1]",,,,,,37,probe5,0.05,0.05,-0.2,0.1,#e69f00,#e69f00,,0.1,0.1,#0072b2,#0072b2,,-0.2,0,#d55e00,#d55e00,,-0.1,0.2,#cc79a7,#cc79a7,,0.1,0,#009e73,#f0e442,,A77K8W55MJEKX,001,2020-12-11_22h13.14.013,change-localization,2020.1.2,Win32,60,,,0,36,36,36,1,,
,,-0.006666667,-0.087777778,1,0,0,2.24143,probe5,"[0,-0.1]",,,,,,38,probe4,0.05,0.05,0.2,-0.2,#4A4A4A,#4A4A4A,,0.2,0,#0072b2,#0072b2,,0.1,-0.1,#e69f00,#e69f00,,0.1,0,#d55e00,#cc79a7,,0,-0.1,#009e73,#009e73,,A77K8W55MJEKX,001,2020-12-11_22h13.14.013,change-localization,2020.1.2,Win32,60,,,0,37,37,37,1,,
,,-0.021111111,-0.106666667,1,0,0,2.649015,probe5,"[0,-0.1]",,,,,,39,probe4,0.05,0.05,0.1,-0.1,#e69f00,#e69f00,,-0.2,-0.1,#cc79a7,#cc79a7,,0.2,0.1,#d55e00,#d55e00,,-0.2,0.2,#56b4e9,#f0e442,,0,-0.1,#0072b2,#0072b2,,A77K8W55MJEKX,001,2020-12-11_22h13.14.013,change-localization,2020.1.2,Win32,60,,,0,38,38,38,1,,
,,0.2,0.208888889,1,0,0,2.224725,probe2,"[0.2,0.2]",,,,,,40,probe1,0.05,0.05,-0.2,0.1,#4A4A4A,#d55e00,,0.2,0.2,#009e73,#009e73,,-0.1,-0.1,#cc79a7,#cc79a7,,0.2,-0.2,#e69f00,#e69f00,,0.1,-0.1,#56b4e9,#56b4e9,,A77K8W55MJEKX,001,2020-12-11_22h13.14.013,change-localization,2020.1.2,Win32,60,,,0,39,39,39,1,,
,,0.195555556,0.093333333,1,0,0,2.244635,probe1,"[0.2,0.1]",,,,,,41,probe4,0.05,0.05,0.2,0.1,#009e73,#009e73,,-0.2,-0.1,#0072b2,#0072b2,,-0.2,-0.2,#56b4e9,#56b4e9,,-0.1,0,#f0e442,#cc79a7,,0,-0.2,#d55e00,#d55e00,,A77K8W55MJEKX,001,2020-12-11_22h13.14.013,change-localization,2020.1.2,Win32,60,,,0,40,40,40,1,,
,,-0.102222222,-0.196666667,1,0,0,1.90809,probe1,"[-0.1,-0.2]",,,,,,42,probe4,0.05,0.05,-0.1,-0.2,#009e73,#009e73,,-0.1,0.1,#cc79a7,#cc79a7,,0.1,0.1,#56b4e9,#56b4e9,,0,-0.2,#e69f00,#d55e00,,-0.1,0,#0072b2,#0072b2,,A77K8W55MJEKX,001,2020-12-11_22h13.14.013,change-localization,2020.1.2,Win32,60,,,0,41,41,41,1,,
,,0.201111111,-0.103333333,1,0,0,3.677065,probe1,"[0.2,-0.1]",,,,,,43,probe1,0.05,0.05,0.2,-0.1,#e69f00,#009e73,,0.1,0,#cc79a7,#cc79a7,,-0.2,-0.2,#f0e442,#f0e442,,0.2,-0.2,#56b4e9,#56b4e9,,-0.2,0.1,#4A4A4A,#4A4A4A,,A77K8W55MJEKX,001,2020-12-11_22h13.14.013,change-localization,2020.1.2,Win32,60,,,0,42,42,42,1,,
,,0.196666667,0.115555556,1,0,0,1.11669,probe2,"[0.2,0.1]",,,,,,44,probe1,0.05,0.05,-0.1,0.2,#56b4e9,#e69f00,,0.2,0.1,#4A4A4A,#4A4A4A,,0.1,0,#cc79a7,#cc79a7,,0.1,0.2,#f0e442,#f0e442,,-0.1,-0.1,#d55e00,#d55e00,,A77K8W55MJEKX,001,2020-12-11_22h13.14.013,change-localization,2020.1.2,Win32,60,,,0,43,43,43,1,,
,,-0.191111111,-0.104444444,1,0,0,1.604655,probe2,"[-0.2,-0.1]",,,,,,45,probe3,0.05,0.05,-0.2,0.2,#0072b2,#0072b2,,-0.2,-0.1,#56b4e9,#56b4e9,,-0.1,0.1,#f0e442,#e69f00,,-0.1,0.2,#d55e00,#d55e00,,0,-0.2,#cc79a7,#cc79a7,,A77K8W55MJEKX,001,2020-12-11_22h13.14.013,change-localization,2020.1.2,Win32,60,,,0,44,44,44,1,,
,,0.178888889,-0.215555556,1,0,0,3.93926,probe3,"[0.2,-0.2]",,,,,,46,probe5,0.05,0.05,0.2,0.1,#0072b2,#0072b2,,0.1,0.2,#f0e442,#f0e442,,0.2,-0.2,#009e73,#009e73,,0.2,0.2,#4A4A4A,#4A4A4A,,0.2,0,#cc79a7,#e69f00,,A77K8W55MJEKX,001,2020-12-11_22h13.14.013,change-localization,2020.1.2,Win32,60,,,0,45,45,45,1,,
,,-0.011111111,-0.11,1,0,0,0.79899,probe1,"[0,-0.1]",,,,,,47,probe3,0.05,0.05,0,-0.1,#009e73,#009e73,,-0.2,0.2,#f0e442,#f0e442,,0.2,0.2,#56b4e9,#cc79a7,,-0.1,0.2,#4A4A4A,#4A4A4A,,-0.1,0.1,#e69f00,#e69f00,,A77K8W55MJEKX,001,2020-12-11_22h13.14.013,change-localization,2020.1.2,Win32,60,,,0,46,46,46,1,,
,,-0.084444444,0.102222222,1,0,0,0.92029,probe2,"[-0.1,0.1]",,,,,,48,probe4,0.05,0.05,0.2,-0.2,#cc79a7,#cc79a7,,-0.1,0.1,#009e73,#009e73,,0.1,-0.2,#f0e442,#f0e442,,-0.2,-0.1,#d55e00,#0072b2,,-0.1,0,#56b4e9,#56b4e9,,A77K8W55MJEKX,001,2020-12-11_22h13.14.013,change-localization,2020.1.2,Win32,60,,,0,47,47,47,1,,
,,-0.115555556,-0.093333333,1,0,0,3.578285,probe5,"[-0.1,-0.1]",,,,,,49,probe2,0.05,0.05,0,-0.2,#e69f00,#e69f00,,-0.2,0,#cc79a7,#0072b2,,-0.1,0.2,#f0e442,#f0e442,,0.1,0.2,#4A4A4A,#4A4A4A,,-0.1,-0.1,#56b4e9,#56b4e9,,A77K8W55MJEKX,001,2020-12-11_22h13.14.013,change-localization,2020.1.2,Win32,60,,,0,48,48,48,1,,
,,0.186666667,0.092222222,1,0,0,1.57967,probe1,"[0.2,0.1]",,,,,,50,probe4,0.05,0.05,0.2,0.1,#0072b2,#0072b2,,0.1,0.1,#cc79a7,#cc79a7,,0.1,-0.2,#56b4e9,#56b4e9,,-0.1,0,#009e73,#e69f00,,0,0.1,#d55e00,#d55e00,,A77K8W55MJEKX,001,2020-12-11_22h13.14.013,change-localization,2020.1.2,Win32,60,,,0,49,49,49,1,,
,,,,,,,,,,,,,,,,,,,,,,,,,,,,,,,,,,,,,,,,,,,,A77K8W55MJEKX,001,2020-12-11_22h13.14.013,change-localization,2020.1.2,Win32,60,,,,,,,,c,23.223805
