key_resp.keys,key_resp.rt,mouse.x,mouse.y,mouse.leftButton,mouse.midButton,mouse.rightButton,mouse.time,mouse.clicked_name,mouse.clicked_pos,training.thisRepN,training.thisTrialN,training.thisN,training.thisIndex,training.ran,trial,answer,height,width,x1,y1,stim_color1,probe_color1,copy_color1,x2,y2,stim_color2,probe_color2,copy_color2,x3,y3,stim_color3,probe_color3,copy_color3,x4,y4,stim_color4,probe_color4,copy_color4,x5,y5,stim_color5,probe_color5,copy_color5,participant,session,date,expName,psychopyVersion,OS,frameRate,key_resp_2.keys,key_resp_2.rt,trials.thisRepN,trials.thisTrialN,trials.thisN,trials.thisIndex,trials.ran,completion_keys.keys,completion_keys.rt
c,20.008,0.122222222,-0.098888889,1,0,0,1.331,probe2,"[0.1,-0.1]",0,0,0,0,1,1,probe4,0.05,0.05,0.1,0.2,#0072b2,#0072b2,#0072b2,0.1,-0.1,#e69f00,#e69f00,#e69f00,-0.1,-0.2,#cc79a7,#cc79a7,#cc79a7,0.2,-0.1,#4A4A4A,#f0e442,#FFFFFF,0.2,0,#009e73,#009e73,#009e73,AG4ZI94MK00AX,001,2020-12-11_22h16.15.530,change-localization,2020.1.2,Win32,60,,,,,,,,,
,,0.193333333,0.002222222,1,0,0,1.031,probe1,"[0.2,0]",0,1,1,1,1,2,probe1,0.05,0.05,0.2,0,#d55e00,#009e73,#FFFFFF,0.2,-0.1,#e69f00,#e69f00,#e69f00,0.1,0,#4A4A4A,#4A4A4A,#4A4A4A,-0.1,0.1,#56b4e9,#56b4e9,#56b4e9,-0.1,0,#cc79a7,#cc79a7,#cc79a7,AG4ZI94MK00AX,001,2020-12-11_22h16.15.530,change-localization,2020.1.2,Win32,60,,,,,,,,,
,,-0.005555556,-0.098888889,1,0,0,0.841,probe5,"[0,-0.1]",0,2,2,2,1,3,probe1,0.05,0.05,-0.2,-0.2,#f0e442,#009e73,#FFFFFF,0.2,-0.1,#d55e00,#d55e00,#d55e00,-0.2,0,#4A4A4A,#4A4A4A,#4A4A4A,-0.1,-0.1,#0072b2,#0072b2,#0072b2,0,-0.1,#56b4e9,#56b4e9,#56b4e9,AG4ZI94MK00AX,001,2020-12-11_22h16.15.530,change-localization,2020.1.2,Win32,60,,,,,,,,,
,,-0.197777778,0.202222222,1,0,0,1.285,probe2,"[-0.2,0.2]",0,3,3,3,1,4,probe1,0.05,0.05,0.2,0.2,#d55e00,#56b4e9,#FFFFFF,-0.2,0.2,#f0e442,#f0e442,#f0e442,0.2,-0.2,#0072b2,#0072b2,#0072b2,-0.2,0,#cc79a7,#cc79a7,#cc79a7,-0.2,0.1,#4A4A4A,#4A4A4A,#4A4A4A,AG4ZI94MK00AX,001,2020-12-11_22h16.15.530,change-localization,2020.1.2,Win32,60,,,,,,,,,
,,-0.003333333,0.101111111,1,0,0,1.218,probe3,"[0,0.1]",0,4,4,4,1,5,probe3,0.05,0.05,-0.2,0.1,#56b4e9,#56b4e9,#56b4e9,0,0.2,#009e73,#009e73,#009e73,0,0.1,#0072b2,#cc79a7,#FFFFFF,-0.1,-0.1,#4A4A4A,#4A4A4A,#4A4A4A,0.2,0,#f0e442,#f0e442,#f0e442,AG4ZI94MK00AX,001,2020-12-11_22h16.15.530,change-localization,2020.1.2,Win32,60,,,,,,,,,
,,-0.003333333,0.101111111,1,0,0,0.907,probe2,"[0,0.1]",0,5,5,5,1,6,probe5,0.05,0.05,-0.1,0.1,#f0e442,#f0e442,#f0e442,0,0.1,#009e73,#009e73,#009e73,-0.2,0,#4A4A4A,#4A4A4A,#4A4A4A,0,-0.2,#d55e00,#d55e00,#d55e00,0.1,0,#cc79a7,#0072b2,#FFFFFF,AG4ZI94MK00AX,001,2020-12-11_22h16.15.530,change-localization,2020.1.2,Win32,60,,,,,,,,,
,,0.098888889,0.208888889,1,0,0,1.157,probe2,"[0.1,0.2]",0,6,6,6,1,7,probe2,0.05,0.05,-0.2,-0.2,#4A4A4A,#4A4A4A,#4A4A4A,0.1,0.2,#0072b2,#d55e00,#FFFFFF,-0.1,-0.2,#f0e442,#f0e442,#f0e442,-0.2,0.2,#009e73,#009e73,#009e73,0.2,0.2,#e69f00,#e69f00,#e69f00,AG4ZI94MK00AX,001,2020-12-11_22h16.15.530,change-localization,2020.1.2,Win32,60,,,,,,,,,
,,0.103333333,-0.2,1,0,0,0.889,probe1,"[0.1,-0.2]",0,7,7,7,1,8,probe1,0.05,0.05,0.1,-0.2,#009e73,#f0e442,#FFFFFF,-0.1,0,#d55e00,#d55e00,#d55e00,-0.1,0.1,#4A4A4A,#4A4A4A,#4A4A4A,-0.2,0,#cc79a7,#cc79a7,#cc79a7,0.2,0,#e69f00,#e69f00,#e69f00,AG4ZI94MK00AX,001,2020-12-11_22h16.15.530,change-localization,2020.1.2,Win32,60,,,,,,,,,
,,0.11,-0.195555556,1,0,0,1.053,probe1,"[0.1,-0.2]",0,8,8,8,1,9,probe1,0.05,0.05,0.1,-0.2,#0072b2,#e69f00,#FFFFFF,-0.1,0.2,#f0e442,#f0e442,#f0e442,-0.2,0.1,#d55e00,#d55e00,#d55e00,0.2,0.2,#cc79a7,#cc79a7,#cc79a7,0.1,0.1,#56b4e9,#56b4e9,#56b4e9,AG4ZI94MK00AX,001,2020-12-11_22h16.15.530,change-localization,2020.1.2,Win32,60,,,,,,,,,
,,0.003333333,0.202222222,1,0,0,1.843,probe2,"[0,0.2]",0,9,9,9,1,10,probe1,0.05,0.05,-0.1,-0.1,#4A4A4A,#f0e442,#FFFFFF,0,0.2,#cc79a7,#cc79a7,#cc79a7,0.2,-0.2,#e69f00,#e69f00,#e69f00,0.1,-0.2,#009e73,#009e73,#009e73,0.1,0.1,#d55e00,#d55e00,#d55e00,AG4ZI94MK00AX,001,2020-12-11_22h16.15.530,change-localization,2020.1.2,Win32,60,,,,,,,,,
,,-0.098888889,0.205555556,1,0,0,2.031,probe2,"[-0.1,0.2]",,,,,,1,probe2,0.05,0.05,-0.2,0.2,#009e73,#009e73,,-0.1,0.2,#f0e442,#e69f00,,-0.1,0,#0072b2,#0072b2,,0,-0.2,#cc79a7,#cc79a7,,0,0.2,#d55e00,#d55e00,,AG4ZI94MK00AX,001,2020-12-11_22h16.15.530,change-localization,2020.1.2,Win32,60,c,4.096,0,0,0,0,1,,
,,-0.003333333,0.104444444,1,0,0,1.885,probe1,"[0,0.1]",,,,,,2,probe5,0.05,0.05,0,0.1,#009e73,#009e73,,0.2,0.1,#4A4A4A,#4A4A4A,,-0.1,-0.1,#cc79a7,#cc79a7,,0.1,0.1,#d55e00,#d55e00,,0,-0.1,#56b4e9,#e69f00,,AG4ZI94MK00AX,001,2020-12-11_22h16.15.530,change-localization,2020.1.2,Win32,60,,,0,1,1,1,1,,
,,0.203333333,-0.092222222,1,0,0,1.004,probe3,"[0.2,-0.1]",,,,,,3,probe4,0.05,0.05,0.1,-0.1,#56b4e9,#56b4e9,,0.2,0,#f0e442,#f0e442,,0.2,-0.1,#e69f00,#e69f00,,-0.1,0.1,#4A4A4A,#009e73,,-0.1,0.2,#d55e00,#d55e00,,AG4ZI94MK00AX,001,2020-12-11_22h16.15.530,change-localization,2020.1.2,Win32,60,,,0,2,2,2,1,,
,,0.2,0.001111111,1,0,0,1.836,probe1,"[0.2,0]",,,,,,4,probe5,0.05,0.05,0.2,0,#56b4e9,#56b4e9,,-0.2,-0.2,#cc79a7,#cc79a7,,0,0.2,#4A4A4A,#4A4A4A,,0.2,-0.2,#e69f00,#e69f00,,-0.2,0,#f0e442,#009e73,,AG4ZI94MK00AX,001,2020-12-11_22h16.15.530,change-localization,2020.1.2,Win32,60,,,0,3,3,3,1,,
,,0.2,0.001111111,1,0,0,1.217,probe4,"[0.2,0]",,,,,,5,probe3,0.05,0.05,-0.2,0.1,#4A4A4A,#4A4A4A,,0.2,0.2,#009e73,#009e73,,-0.1,-0.1,#0072b2,#f0e442,,0.2,0,#cc79a7,#cc79a7,,0.1,0.1,#e69f00,#e69f00,,AG4ZI94MK00AX,001,2020-12-11_22h16.15.530,change-localization,2020.1.2,Win32,60,,,0,4,4,4,1,,
,,0.007777778,0.208888889,1,0,0,1.906,probe4,"[0,0.2]",,,,,,6,probe4,0.05,0.05,-0.1,0.1,#d55e00,#d55e00,,-0.2,0.2,#0072b2,#0072b2,,0,-0.1,#e69f00,#e69f00,,0,0.2,#56b4e9,#4A4A4A,,-0.2,-0.2,#009e73,#009e73,,AG4ZI94MK00AX,001,2020-12-11_22h16.15.530,change-localization,2020.1.2,Win32,60,,,0,5,5,5,1,,
,,0.185555556,0.2,1,0,0,2.216,probe4,"[0.2,0.2]",,,,,,7,probe4,0.05,0.05,0.2,-0.1,#56b4e9,#56b4e9,,-0.1,-0.1,#e69f00,#e69f00,,-0.2,0.2,#009e73,#009e73,,0.2,0.2,#cc79a7,#4A4A4A,,0.2,-0.2,#d55e00,#d55e00,,AG4ZI94MK00AX,001,2020-12-11_22h16.15.530,change-localization,2020.1.2,Win32,60,,,0,6,6,6,1,,
,,-0.2,0.208888889,1,0,0,1.594,probe4,"[-0.2,0.2]",,,,,,8,probe4,0.05,0.05,-0.2,0.1,#e69f00,#e69f00,,0.1,0.2,#cc79a7,#cc79a7,,0.2,0.1,#4A4A4A,#4A4A4A,,-0.2,0.2,#56b4e9,#d55e00,,0.2,-0.1,#0072b2,#0072b2,,AG4ZI94MK00AX,001,2020-12-11_22h16.15.530,change-localization,2020.1.2,Win32,60,,,0,7,7,7,1,,
,,0.111111111,0.106666667,1,0,0,1.222,probe2,"[0.1,0.1]",,,,,,9,probe5,0.05,0.05,-0.1,0,#4A4A4A,#4A4A4A,,0.1,0.1,#56b4e9,#56b4e9,,-0.2,0.1,#009e73,#009e73,,0.2,0.1,#cc79a7,#cc79a7,,0.2,0.2,#d55e00,#f0e442,,AG4ZI94MK00AX,001,2020-12-11_22h16.15.530,change-localization,2020.1.2,Win32,60,,,0,8,8,8,1,,
,,0.197777778,0.003333333,1,0,0,1.593,probe5,"[0.2,0]",,,,,,10,probe3,0.05,0.05,0.2,0.2,#f0e442,#f0e442,,0.1,-0.1,#e69f00,#e69f00,,0,0.1,#cc79a7,#4A4A4A,,-0.2,0.1,#56b4e9,#56b4e9,,0.2,0,#0072b2,#0072b2,,AG4ZI94MK00AX,001,2020-12-11_22h16.15.530,change-localization,2020.1.2,Win32,60,,,0,9,9,9,1,,
,,0.096666667,0.201111111,1,0,0,1.938,probe2,"[0.1,0.2]",,,,,,11,probe5,0.05,0.05,0.2,0.2,#4A4A4A,#4A4A4A,,0.1,0.2,#0072b2,#0072b2,,0.1,-0.1,#cc79a7,#cc79a7,,0,-0.2,#009e73,#009e73,,0.1,-0.2,#f0e442,#d55e00,,AG4ZI94MK00AX,001,2020-12-11_22h16.15.530,change-localization,2020.1.2,Win32,60,,,0,10,10,10,1,,
,,0.001111111,-0.096666667,1,0,0,1.717,probe5,"[0,-0.1]",,,,,,12,probe4,0.05,0.05,-0.1,-0.1,#009e73,#009e73,,-0.1,0,#56b4e9,#56b4e9,,-0.1,-0.2,#0072b2,#0072b2,,0.1,0,#d55e00,#f0e442,,0,-0.1,#cc79a7,#cc79a7,,AG4ZI94MK00AX,001,2020-12-11_22h16.15.530,change-localization,2020.1.2,Win32,60,,,0,11,11,11,1,,
,,0.104444444,-0.09,1,0,0,1.031,probe2,"[0.1,-0.1]",,,,,,13,probe4,0.05,0.05,0,-0.1,#f0e442,#f0e442,,0.1,-0.1,#d55e00,#d55e00,,0.1,0.1,#0072b2,#0072b2,,-0.2,0.2,#cc79a7,#4A4A4A,,0.1,0.2,#009e73,#009e73,,AG4ZI94MK00AX,001,2020-12-11_22h16.15.530,change-localization,2020.1.2,Win32,60,,,0,12,12,12,1,,
,,0.105555556,0.211111111,1,0,0,2.001,probe5,"[0.1,0.2]",,,,,,14,probe5,0.05,0.05,0,0.2,#cc79a7,#cc79a7,,0,-0.1,#4A4A4A,#4A4A4A,,-0.2,0,#56b4e9,#56b4e9,,0.1,0.1,#0072b2,#0072b2,,0.1,0.2,#009e73,#e69f00,,AG4ZI94MK00AX,001,2020-12-11_22h16.15.530,change-localization,2020.1.2,Win32,60,,,0,13,13,13,1,,
,,0.197777778,0.104444444,1,0,0,1.438,probe3,"[0.2,0.1]",,,,,,15,probe3,0.05,0.05,0.2,0.2,#cc79a7,#cc79a7,,0,0.2,#56b4e9,#56b4e9,,0.2,0.1,#d55e00,#4A4A4A,,0.1,-0.1,#f0e442,#f0e442,,0.2,-0.1,#0072b2,#0072b2,,AG4ZI94MK00AX,001,2020-12-11_22h16.15.530,change-localization,2020.1.2,Win32,60,,,0,14,14,14,1,,
,,0.094444444,0.106666667,1,0,0,3.156,probe3,"[0.1,0.1]",,,,,,16,probe3,0.05,0.05,-0.2,-0.1,#f0e442,#f0e442,,-0.2,0.2,#d55e00,#d55e00,,0.1,0.1,#009e73,#4A4A4A,,-0.2,0.1,#56b4e9,#56b4e9,,0,-0.1,#cc79a7,#cc79a7,,AG4ZI94MK00AX,001,2020-12-11_22h16.15.530,change-localization,2020.1.2,Win32,60,,,0,15,15,15,1,,
,,-0.101111111,-0.102222222,1,0,0,2.56,probe5,"[-0.1,-0.1]",,,,,,17,probe3,0.05,0.05,0.2,-0.1,#cc79a7,#cc79a7,,0,-0.2,#0072b2,#0072b2,,0,0.1,#4A4A4A,#e69f00,,-0.2,-0.1,#f0e442,#f0e442,,-0.1,-0.1,#009e73,#009e73,,AG4ZI94MK00AX,001,2020-12-11_22h16.15.530,change-localization,2020.1.2,Win32,60,,,0,16,16,16,1,,
,,0.1,-0.098888889,1,0,0,2.261,probe4,"[0.1,-0.1]",,,,,,18,probe3,0.05,0.05,-0.1,0.1,#d55e00,#d55e00,,-0.1,0.2,#e69f00,#e69f00,,0.2,0,#009e73,#0072b2,,0.1,-0.1,#cc79a7,#cc79a7,,-0.2,0.2,#4A4A4A,#4A4A4A,,AG4ZI94MK00AX,001,2020-12-11_22h16.15.530,change-localization,2020.1.2,Win32,60,,,0,17,17,17,1,,
,,-0.208888889,0.101111111,1,0,0,1.862,probe5,"[-0.2,0.1]",,,,,,19,probe3,0.05,0.05,-0.1,0.2,#0072b2,#0072b2,,0,-0.1,#4A4A4A,#4A4A4A,,-0.1,0.1,#e69f00,#009e73,,0.2,0.1,#d55e00,#d55e00,,-0.2,0.1,#cc79a7,#cc79a7,,AG4ZI94MK00AX,001,2020-12-11_22h16.15.530,change-localization,2020.1.2,Win32,60,,,0,18,18,18,1,,
,,-0.001111111,-0.092222222,1,0,0,1.99,probe4,"[0,-0.1]",,,,,,20,probe4,0.05,0.05,0.2,0,#56b4e9,#56b4e9,,-0.1,0.2,#009e73,#009e73,,-0.2,-0.2,#e69f00,#e69f00,,0,-0.1,#f0e442,#cc79a7,,-0.1,0,#4A4A4A,#4A4A4A,,AG4ZI94MK00AX,001,2020-12-11_22h16.15.530,change-localization,2020.1.2,Win32,60,,,0,19,19,19,1,,
,,0.202222222,0.111111111,1,0,0,2.505,probe5,"[0.2,0.1]",,,,,,21,probe3,0.05,0.05,-0.1,0.1,#0072b2,#0072b2,,-0.1,0.2,#009e73,#009e73,,0.2,0,#56b4e9,#4A4A4A,,-0.2,0.2,#f0e442,#f0e442,,0.2,0.1,#d55e00,#d55e00,,AG4ZI94MK00AX,001,2020-12-11_22h16.15.530,change-localization,2020.1.2,Win32,60,,,0,20,20,20,1,,
,,0.103333333,-0.197777778,1,0,0,1.726,probe3,"[0.1,-0.2]",,,,,,22,probe4,0.05,0.05,0.2,-0.1,#d55e00,#d55e00,,0.2,0,#56b4e9,#56b4e9,,0.1,-0.2,#cc79a7,#cc79a7,,-0.2,-0.1,#4A4A4A,#009e73,,0,-0.2,#e69f00,#e69f00,,AG4ZI94MK00AX,001,2020-12-11_22h16.15.530,change-localization,2020.1.2,Win32,60,,,0,21,21,21,1,,
,,0.203333333,0.007777778,1,0,0,1.675,probe3,"[0.2,0]",,,,,,23,probe4,0.05,0.05,0.1,0.1,#56b4e9,#56b4e9,,-0.2,-0.1,#0072b2,#0072b2,,0.2,0,#d55e00,#d55e00,,-0.2,-0.2,#cc79a7,#009e73,,0.1,-0.2,#4A4A4A,#4A4A4A,,AG4ZI94MK00AX,001,2020-12-11_22h16.15.530,change-localization,2020.1.2,Win32,60,,,0,22,22,22,1,,
,,0.1,0.104444444,1,0,0,2.623,probe4,"[0.1,0.1]",,,,,,24,probe2,0.05,0.05,-0.1,-0.2,#4A4A4A,#4A4A4A,,0.2,0.2,#d55e00,#e69f00,,0.1,-0.1,#f0e442,#f0e442,,0.1,0.1,#56b4e9,#56b4e9,,-0.2,0.1,#cc79a7,#cc79a7,,AG4ZI94MK00AX,001,2020-12-11_22h16.15.530,change-localization,2020.1.2,Win32,60,,,0,23,23,23,1,,
,,0.198888889,0.006666667,1,0,0,2.001,probe3,"[0.2,0]",,,,,,25,probe3,0.05,0.05,-0.2,-0.2,#f0e442,#f0e442,,-0.1,-0.1,#4A4A4A,#4A4A4A,,0.2,0,#d55e00,#cc79a7,,0,0.2,#0072b2,#0072b2,,-0.2,0.1,#009e73,#009e73,,AG4ZI94MK00AX,001,2020-12-11_22h16.15.530,change-localization,2020.1.2,Win32,60,,,0,24,24,24,1,,
,,-0.1,-0.207777778,1,0,0,1.708,probe3,"[-0.1,-0.2]",,,,,,26,probe3,0.05,0.05,0.1,-0.1,#e69f00,#e69f00,,-0.2,0,#56b4e9,#56b4e9,,-0.1,-0.2,#009e73,#d55e00,,-0.2,-0.1,#4A4A4A,#4A4A4A,,0.1,0,#cc79a7,#cc79a7,,AG4ZI94MK00AX,001,2020-12-11_22h16.15.530,change-localization,2020.1.2,Win32,60,,,0,25,25,25,1,,
,,0.097777778,0.104444444,1,0,0,2.777,probe4,"[0.1,0.1]",,,,,,27,probe5,0.05,0.05,-0.1,-0.2,#009e73,#009e73,,0.2,0,#cc79a7,#cc79a7,,-0.1,-0.1,#e69f00,#e69f00,,0.1,0.1,#d55e00,#d55e00,,-0.2,-0.1,#4A4A4A,#0072b2,,AG4ZI94MK00AX,001,2020-12-11_22h16.15.530,change-localization,2020.1.2,Win32,60,,,0,26,26,26,1,,
,,0.1,0.103333333,1,0,0,2.527,probe5,"[0.1,0.1]",,,,,,28,probe5,0.05,0.05,-0.1,0.2,#009e73,#009e73,,-0.2,0.1,#56b4e9,#56b4e9,,0,-0.2,#d55e00,#d55e00,,0.1,0,#0072b2,#0072b2,,0.1,0.1,#f0e442,#e69f00,,AG4ZI94MK00AX,001,2020-12-11_22h16.15.530,change-localization,2020.1.2,Win32,60,,,0,27,27,27,1,,
,,0.104444444,0.201111111,1,0,0,1.798,probe4,"[0.1,0.2]",,,,,,29,probe1,0.05,0.05,0.1,-0.1,#4A4A4A,#56b4e9,,-0.2,0.2,#e69f00,#e69f00,,-0.1,-0.1,#f0e442,#f0e442,,0.1,0.2,#0072b2,#0072b2,,-0.1,-0.2,#cc79a7,#cc79a7,,AG4ZI94MK00AX,001,2020-12-11_22h16.15.530,change-localization,2020.1.2,Win32,60,,,0,28,28,28,1,,
,,-0.11,-0.2,1,0,0,1.602,probe2,"[-0.1,-0.2]",,,,,,30,probe2,0.05,0.05,0.1,0.2,#f0e442,#f0e442,,-0.1,-0.2,#d55e00,#4A4A4A,,0,-0.2,#cc79a7,#cc79a7,,0.1,-0.2,#0072b2,#0072b2,,-0.2,0,#009e73,#009e73,,AG4ZI94MK00AX,001,2020-12-11_22h16.15.530,change-localization,2020.1.2,Win32,60,,,0,29,29,29,1,,
,,-0.102222222,-0.098888889,1,0,0,2.093,probe5,"[-0.1,-0.1]",,,,,,31,probe5,0.05,0.05,0,-0.2,#d55e00,#d55e00,,0.1,0,#e69f00,#e69f00,,0.1,0.2,#f0e442,#f0e442,,-0.2,-0.1,#cc79a7,#cc79a7,,-0.1,-0.1,#009e73,#4A4A4A,,AG4ZI94MK00AX,001,2020-12-11_22h16.15.530,change-localization,2020.1.2,Win32,60,,,0,30,30,30,1,,
,,0.202222222,0.103333333,1,0,0,1.744,probe3,"[0.2,0.1]",,,,,,32,probe3,0.05,0.05,0.2,0.2,#56b4e9,#56b4e9,,-0.1,-0.1,#009e73,#009e73,,0.2,0.1,#cc79a7,#0072b2,,-0.2,0.1,#4A4A4A,#4A4A4A,,-0.2,-0.1,#f0e442,#f0e442,,AG4ZI94MK00AX,001,2020-12-11_22h16.15.530,change-localization,2020.1.2,Win32,60,,,0,31,31,31,1,,
,,0.097777778,0.105555556,1,0,0,2.562,probe2,"[0.1,0.1]",,,,,,33,probe3,0.05,0.05,-0.1,-0.1,#0072b2,#0072b2,,0.1,0.1,#cc79a7,#cc79a7,,-0.1,0.1,#f0e442,#009e73,,0,-0.2,#56b4e9,#56b4e9,,0.1,0.2,#e69f00,#e69f00,,AG4ZI94MK00AX,001,2020-12-11_22h16.15.530,change-localization,2020.1.2,Win32,60,,,0,32,32,32,1,,
,,0.193333333,0.103333333,1,0,0,1.782,probe1,"[0.2,0.1]",,,,,,34,probe5,0.05,0.05,0.2,0.1,#e69f00,#e69f00,,-0.2,0.1,#cc79a7,#cc79a7,,0.1,-0.2,#0072b2,#0072b2,,0.2,-0.2,#d55e00,#d55e00,,-0.2,0,#56b4e9,#009e73,,AG4ZI94MK00AX,001,2020-12-11_22h16.15.530,change-localization,2020.1.2,Win32,60,,,0,33,33,33,1,,
,,0.202222222,-0.097777778,1,0,0,1.78,probe2,"[0.2,-0.1]",,,,,,35,probe2,0.05,0.05,0.2,0,#56b4e9,#56b4e9,,0.2,-0.1,#e69f00,#009e73,,0.1,-0.1,#f0e442,#f0e442,,0,0.2,#d55e00,#d55e00,,0.1,0.2,#cc79a7,#cc79a7,,AG4ZI94MK00AX,001,2020-12-11_22h16.15.530,change-localization,2020.1.2,Win32,60,,,0,34,34,34,1,,
,,-0.198888889,-0.093333333,1,0,0,2.371,probe3,"[-0.2,-0.1]",,,,,,36,probe3,0.05,0.05,0,0.1,#4A4A4A,#4A4A4A,,0.2,0.1,#009e73,#009e73,,-0.2,-0.1,#f0e442,#56b4e9,,-0.1,-0.1,#e69f00,#e69f00,,0.1,0,#0072b2,#0072b2,,AG4ZI94MK00AX,001,2020-12-11_22h16.15.530,change-localization,2020.1.2,Win32,60,,,0,35,35,35,1,,
,,-0.198888889,0.105555556,1,0,0,2.69,probe1,"[-0.2,0.1]",,,,,,37,probe5,0.05,0.05,-0.2,0.1,#e69f00,#e69f00,,0.1,0.1,#0072b2,#0072b2,,-0.2,0,#d55e00,#d55e00,,-0.1,0.2,#cc79a7,#cc79a7,,0.1,0,#009e73,#f0e442,,AG4ZI94MK00AX,001,2020-12-11_22h16.15.530,change-localization,2020.1.2,Win32,60,,,0,36,36,36,1,,
,,0.202222222,-0.003333333,1,0,0,1.615,probe2,"[0.2,0]",,,,,,38,probe4,0.05,0.05,0.2,-0.2,#4A4A4A,#4A4A4A,,0.2,0,#0072b2,#0072b2,,0.1,-0.1,#e69f00,#e69f00,,0.1,0,#d55e00,#cc79a7,,0,-0.1,#009e73,#009e73,,AG4ZI94MK00AX,001,2020-12-11_22h16.15.530,change-localization,2020.1.2,Win32,60,,,0,37,37,37,1,,
,,-0.204444444,0.201111111,1,0,0,1.889,probe4,"[-0.2,0.2]",,,,,,39,probe4,0.05,0.05,0.1,-0.1,#e69f00,#e69f00,,-0.2,-0.1,#cc79a7,#cc79a7,,0.2,0.1,#d55e00,#d55e00,,-0.2,0.2,#56b4e9,#f0e442,,0,-0.1,#0072b2,#0072b2,,AG4ZI94MK00AX,001,2020-12-11_22h16.15.530,change-localization,2020.1.2,Win32,60,,,0,38,38,38,1,,
,,-0.211111111,0.104444444,1,0,0,1.402,probe1,"[-0.2,0.1]",,,,,,40,probe1,0.05,0.05,-0.2,0.1,#4A4A4A,#d55e00,,0.2,0.2,#009e73,#009e73,,-0.1,-0.1,#cc79a7,#cc79a7,,0.2,-0.2,#e69f00,#e69f00,,0.1,-0.1,#56b4e9,#56b4e9,,AG4ZI94MK00AX,001,2020-12-11_22h16.15.530,change-localization,2020.1.2,Win32,60,,,0,39,39,39,1,,
,,-0.108888889,0.003333333,1,0,0,2.024,probe4,"[-0.1,0]",,,,,,41,probe4,0.05,0.05,0.2,0.1,#009e73,#009e73,,-0.2,-0.1,#0072b2,#0072b2,,-0.2,-0.2,#56b4e9,#56b4e9,,-0.1,0,#f0e442,#cc79a7,,0,-0.2,#d55e00,#d55e00,,AG4ZI94MK00AX,001,2020-12-11_22h16.15.530,change-localization,2020.1.2,Win32,60,,,0,40,40,40,1,,
,,0.094444444,0.102222222,1,0,0,2.026,probe3,"[0.1,0.1]",,,,,,42,probe4,0.05,0.05,-0.1,-0.2,#009e73,#009e73,,-0.1,0.1,#cc79a7,#cc79a7,,0.1,0.1,#56b4e9,#56b4e9,,0,-0.2,#e69f00,#d55e00,,-0.1,0,#0072b2,#0072b2,,AG4ZI94MK00AX,001,2020-12-11_22h16.15.530,change-localization,2020.1.2,Win32,60,,,0,41,41,41,1,,
,,-0.202222222,-0.2,1,0,0,2.417,probe3,"[-0.2,-0.2]",,,,,,43,probe1,0.05,0.05,0.2,-0.1,#e69f00,#009e73,,0.1,0,#cc79a7,#cc79a7,,-0.2,-0.2,#f0e442,#f0e442,,0.2,-0.2,#56b4e9,#56b4e9,,-0.2,0.1,#4A4A4A,#4A4A4A,,AG4ZI94MK00AX,001,2020-12-11_22h16.15.530,change-localization,2020.1.2,Win32,60,,,0,42,42,42,1,,
,,0.082222222,0.202222222,1,0,0,2.036,probe4,"[0.1,0.2]",,,,,,44,probe1,0.05,0.05,-0.1,0.2,#56b4e9,#e69f00,,0.2,0.1,#4A4A4A,#4A4A4A,,0.1,0,#cc79a7,#cc79a7,,0.1,0.2,#f0e442,#f0e442,,-0.1,-0.1,#d55e00,#d55e00,,AG4ZI94MK00AX,001,2020-12-11_22h16.15.530,change-localization,2020.1.2,Win32,60,,,0,43,43,43,1,,
,,0.002222222,-0.194444444,1,0,0,2.351,probe5,"[0,-0.2]",,,,,,45,probe3,0.05,0.05,-0.2,0.2,#0072b2,#0072b2,,-0.2,-0.1,#56b4e9,#56b4e9,,-0.1,0.1,#f0e442,#e69f00,,-0.1,0.2,#d55e00,#d55e00,,0,-0.2,#cc79a7,#cc79a7,,AG4ZI94MK00AX,001,2020-12-11_22h16.15.530,change-localization,2020.1.2,Win32,60,,,0,44,44,44,1,,
,,0.197777778,0.003333333,1,0,0,1.625,probe5,"[0.2,0]",,,,,,46,probe5,0.05,0.05,0.2,0.1,#0072b2,#0072b2,,0.1,0.2,#f0e442,#f0e442,,0.2,-0.2,#009e73,#009e73,,0.2,0.2,#4A4A4A,#4A4A4A,,0.2,0,#cc79a7,#e69f00,,AG4ZI94MK00AX,001,2020-12-11_22h16.15.530,change-localization,2020.1.2,Win32,60,,,0,45,45,45,1,,
,,-0.097777778,0.104444444,1,0,0,1.704,probe5,"[-0.1,0.1]",,,,,,47,probe3,0.05,0.05,0,-0.1,#009e73,#009e73,,-0.2,0.2,#f0e442,#f0e442,,0.2,0.2,#56b4e9,#cc79a7,,-0.1,0.2,#4A4A4A,#4A4A4A,,-0.1,0.1,#e69f00,#e69f00,,AG4ZI94MK00AX,001,2020-12-11_22h16.15.530,change-localization,2020.1.2,Win32,60,,,0,46,46,46,1,,
,,-0.098888889,0.1,1,0,0,1.858,probe2,"[-0.1,0.1]",,,,,,48,probe4,0.05,0.05,0.2,-0.2,#cc79a7,#cc79a7,,-0.1,0.1,#009e73,#009e73,,0.1,-0.2,#f0e442,#f0e442,,-0.2,-0.1,#d55e00,#0072b2,,-0.1,0,#56b4e9,#56b4e9,,AG4ZI94MK00AX,001,2020-12-11_22h16.15.530,change-localization,2020.1.2,Win32,60,,,0,47,47,47,1,,
,,-0.097777778,-0.102222222,1,0,0,1.718,probe5,"[-0.1,-0.1]",,,,,,49,probe2,0.05,0.05,0,-0.2,#e69f00,#e69f00,,-0.2,0,#cc79a7,#0072b2,,-0.1,0.2,#f0e442,#f0e442,,0.1,0.2,#4A4A4A,#4A4A4A,,-0.1,-0.1,#56b4e9,#56b4e9,,AG4ZI94MK00AX,001,2020-12-11_22h16.15.530,change-localization,2020.1.2,Win32,60,,,0,48,48,48,1,,
,,-0.1,0,1,0,0,2.576,probe4,"[-0.1,0]",,,,,,50,probe4,0.05,0.05,0.2,0.1,#0072b2,#0072b2,,0.1,0.1,#cc79a7,#cc79a7,,0.1,-0.2,#56b4e9,#56b4e9,,-0.1,0,#009e73,#e69f00,,0,0.1,#d55e00,#d55e00,,AG4ZI94MK00AX,001,2020-12-11_22h16.15.530,change-localization,2020.1.2,Win32,60,,,0,49,49,49,1,,
,,,,,,,,,,,,,,,,,,,,,,,,,,,,,,,,,,,,,,,,,,,,AG4ZI94MK00AX,001,2020-12-11_22h16.15.530,change-localization,2020.1.2,Win32,60,,,,,,,,c,9.164
