key_resp.keys,key_resp.rt,mouse.x,mouse.y,mouse.leftButton,mouse.midButton,mouse.rightButton,mouse.time,mouse.clicked_name,mouse.clicked_pos,training.thisRepN,training.thisTrialN,training.thisN,training.thisIndex,training.ran,trial,answer,height,width,x1,y1,stim_color1,probe_color1,copy_color1,x2,y2,stim_color2,probe_color2,copy_color2,x3,y3,stim_color3,probe_color3,copy_color3,x4,y4,stim_color4,probe_color4,copy_color4,x5,y5,stim_color5,probe_color5,copy_color5,participant,session,date,expName,psychopyVersion,OS,frameRate,key_resp_2.keys,key_resp_2.rt,trials.thisRepN,trials.thisTrialN,trials.thisN,trials.thisIndex,trials.ran,completion_keys.keys,completion_keys.rt
c,334.976,0.127777778,-0.096666667,1,0,0,0.188,probe2,"[0.1,-0.1]",0,0,0,0,1,1,probe4,0.05,0.05,0.1,0.2,#0072b2,#0072b2,#0072b2,0.1,-0.1,#e69f00,#e69f00,#e69f00,-0.1,-0.2,#cc79a7,#cc79a7,#cc79a7,0.2,-0.1,#4A4A4A,#f0e442,#FFFFFF,0.2,0,#009e73,#009e73,#009e73,AGQF6T924GL8N,001,2020-12-11_18h00.40.618,change-localization,2020.1.2,Win32,60,,,,,,,,,
,,-0.085555556,0.004444444,1,0,0,1.844,probe5,"[-0.1,0]",0,1,1,1,1,2,probe1,0.05,0.05,0.2,0,#d55e00,#009e73,#FFFFFF,0.2,-0.1,#e69f00,#e69f00,#e69f00,0.1,0,#4A4A4A,#4A4A4A,#4A4A4A,-0.1,0.1,#56b4e9,#56b4e9,#56b4e9,-0.1,0,#cc79a7,#cc79a7,#cc79a7,AGQF6T924GL8N,001,2020-12-11_18h00.40.618,change-localization,2020.1.2,Win32,60,,,,,,,,,
,,-0.217777778,0.007777778,1,0,0,2.471,probe3,"[-0.2,0]",0,2,2,2,1,3,probe1,0.05,0.05,-0.2,-0.2,#f0e442,#009e73,#FFFFFF,0.2,-0.1,#d55e00,#d55e00,#d55e00,-0.2,0,#4A4A4A,#4A4A4A,#4A4A4A,-0.1,-0.1,#0072b2,#0072b2,#0072b2,0,-0.1,#56b4e9,#56b4e9,#56b4e9,AGQF6T924GL8N,001,2020-12-11_18h00.40.618,change-localization,2020.1.2,Win32,60,,,,,,,,,
,,-0.206666667,0.003333333,1,0,0,1.938,probe4,"[-0.2,0]",0,3,3,3,1,4,probe1,0.05,0.05,0.2,0.2,#d55e00,#56b4e9,#FFFFFF,-0.2,0.2,#f0e442,#f0e442,#f0e442,0.2,-0.2,#0072b2,#0072b2,#0072b2,-0.2,0,#cc79a7,#cc79a7,#cc79a7,-0.2,0.1,#4A4A4A,#4A4A4A,#4A4A4A,AGQF6T924GL8N,001,2020-12-11_18h00.40.618,change-localization,2020.1.2,Win32,60,,,,,,,,,
,,-0.103333333,-0.097777778,1,0,0,1.906,probe4,"[-0.1,-0.1]",0,4,4,4,1,5,probe3,0.05,0.05,-0.2,0.1,#56b4e9,#56b4e9,#56b4e9,0,0.2,#009e73,#009e73,#009e73,0,0.1,#0072b2,#cc79a7,#FFFFFF,-0.1,-0.1,#4A4A4A,#4A4A4A,#4A4A4A,0.2,0,#f0e442,#f0e442,#f0e442,AGQF6T924GL8N,001,2020-12-11_18h00.40.618,change-localization,2020.1.2,Win32,60,,,,,,,,,
,,0.007777778,-0.218888889,1,0,0,1.78,probe4,"[0,-0.2]",0,5,5,5,1,6,probe5,0.05,0.05,-0.1,0.1,#f0e442,#f0e442,#f0e442,0,0.1,#009e73,#009e73,#009e73,-0.2,0,#4A4A4A,#4A4A4A,#4A4A4A,0,-0.2,#d55e00,#d55e00,#d55e00,0.1,0,#cc79a7,#0072b2,#FFFFFF,AGQF6T924GL8N,001,2020-12-11_18h00.40.618,change-localization,2020.1.2,Win32,60,,,,,,,,,
,,0.193333333,0.197777778,1,0,0,2.155,probe5,"[0.2,0.2]",0,6,6,6,1,7,probe2,0.05,0.05,-0.2,-0.2,#4A4A4A,#4A4A4A,#4A4A4A,0.1,0.2,#0072b2,#d55e00,#FFFFFF,-0.1,-0.2,#f0e442,#f0e442,#f0e442,-0.2,0.2,#009e73,#009e73,#009e73,0.2,0.2,#e69f00,#e69f00,#e69f00,AGQF6T924GL8N,001,2020-12-11_18h00.40.618,change-localization,2020.1.2,Win32,60,,,,,,,,,
,,-0.197777778,0.007777778,1,0,0,1.469,probe4,"[-0.2,0]",0,7,7,7,1,8,probe1,0.05,0.05,0.1,-0.2,#009e73,#f0e442,#FFFFFF,-0.1,0,#d55e00,#d55e00,#d55e00,-0.1,0.1,#4A4A4A,#4A4A4A,#4A4A4A,-0.2,0,#cc79a7,#cc79a7,#cc79a7,0.2,0,#e69f00,#e69f00,#e69f00,AGQF6T924GL8N,001,2020-12-11_18h00.40.618,change-localization,2020.1.2,Win32,60,,,,,,,,,
,,-0.197777778,0.101111111,1,0,0,1.688,probe3,"[-0.2,0.1]",0,8,8,8,1,9,probe1,0.05,0.05,0.1,-0.2,#0072b2,#e69f00,#FFFFFF,-0.1,0.2,#f0e442,#f0e442,#f0e442,-0.2,0.1,#d55e00,#d55e00,#d55e00,0.2,0.2,#cc79a7,#cc79a7,#cc79a7,0.1,0.1,#56b4e9,#56b4e9,#56b4e9,AGQF6T924GL8N,001,2020-12-11_18h00.40.618,change-localization,2020.1.2,Win32,60,,,,,,,,,
,,-0.095555556,-0.103333333,1,0,0,2.094,probe1,"[-0.1,-0.1]",0,9,9,9,1,10,probe1,0.05,0.05,-0.1,-0.1,#4A4A4A,#f0e442,#FFFFFF,0,0.2,#cc79a7,#cc79a7,#cc79a7,0.2,-0.2,#e69f00,#e69f00,#e69f00,0.1,-0.2,#009e73,#009e73,#009e73,0.1,0.1,#d55e00,#d55e00,#d55e00,AGQF6T924GL8N,001,2020-12-11_18h00.40.618,change-localization,2020.1.2,Win32,60,,,,,,,,,
,,-0.087777778,0.19,1,0,0,0.874,probe2,"[-0.1,0.2]",,,,,,1,probe2,0.05,0.05,-0.2,0.2,#009e73,#009e73,,-0.1,0.2,#f0e442,#e69f00,,-0.1,0,#0072b2,#0072b2,,0,-0.2,#cc79a7,#cc79a7,,0,0.2,#d55e00,#d55e00,,AGQF6T924GL8N,001,2020-12-11_18h00.40.618,change-localization,2020.1.2,Win32,60,c,118.624,0,0,0,0,1,,
,,0.17,0.098888889,1,0,0,1.623,probe2,"[0.2,0.1]",,,,,,2,probe5,0.05,0.05,0,0.1,#009e73,#009e73,,0.2,0.1,#4A4A4A,#4A4A4A,,-0.1,-0.1,#cc79a7,#cc79a7,,0.1,0.1,#d55e00,#d55e00,,0,-0.1,#56b4e9,#e69f00,,AGQF6T924GL8N,001,2020-12-11_18h00.40.618,change-localization,2020.1.2,Win32,60,,,0,1,1,1,1,,
,,-0.107777778,0.107777778,1,0,0,0.719,probe4,"[-0.1,0.1]",,,,,,3,probe4,0.05,0.05,0.1,-0.1,#56b4e9,#56b4e9,,0.2,0,#f0e442,#f0e442,,0.2,-0.1,#e69f00,#e69f00,,-0.1,0.1,#4A4A4A,#009e73,,-0.1,0.2,#d55e00,#d55e00,,AGQF6T924GL8N,001,2020-12-11_18h00.40.618,change-localization,2020.1.2,Win32,60,,,0,2,2,2,1,,
,,-0.183333333,0.015555556,1,0,0,22.407,probe5,"[-0.2,0]",,,,,,4,probe5,0.05,0.05,0.2,0,#56b4e9,#56b4e9,,-0.2,-0.2,#cc79a7,#cc79a7,,0,0.2,#4A4A4A,#4A4A4A,,0.2,-0.2,#e69f00,#e69f00,,-0.2,0,#f0e442,#009e73,,AGQF6T924GL8N,001,2020-12-11_18h00.40.618,change-localization,2020.1.2,Win32,60,,,0,3,3,3,1,,
,,-0.107777778,-0.101111111,1,0,0,1.562,probe3,"[-0.1,-0.1]",,,,,,5,probe3,0.05,0.05,-0.2,0.1,#4A4A4A,#4A4A4A,,0.2,0.2,#009e73,#009e73,,-0.1,-0.1,#0072b2,#f0e442,,0.2,0,#cc79a7,#cc79a7,,0.1,0.1,#e69f00,#e69f00,,AGQF6T924GL8N,001,2020-12-11_18h00.40.618,change-localization,2020.1.2,Win32,60,,,0,4,4,4,1,,
,,0,0.201111111,1,0,0,2.282,probe4,"[0,0.2]",,,,,,6,probe4,0.05,0.05,-0.1,0.1,#d55e00,#d55e00,,-0.2,0.2,#0072b2,#0072b2,,0,-0.1,#e69f00,#e69f00,,0,0.2,#56b4e9,#4A4A4A,,-0.2,-0.2,#009e73,#009e73,,AGQF6T924GL8N,001,2020-12-11_18h00.40.618,change-localization,2020.1.2,Win32,60,,,0,5,5,5,1,,
,,-0.102222222,-0.097777778,1,0,0,1.908,probe2,"[-0.1,-0.1]",,,,,,7,probe4,0.05,0.05,0.2,-0.1,#56b4e9,#56b4e9,,-0.1,-0.1,#e69f00,#e69f00,,-0.2,0.2,#009e73,#009e73,,0.2,0.2,#cc79a7,#4A4A4A,,0.2,-0.2,#d55e00,#d55e00,,AGQF6T924GL8N,001,2020-12-11_18h00.40.618,change-localization,2020.1.2,Win32,60,,,0,6,6,6,1,,
,,-0.202222222,0.197777778,1,0,0,1.874,probe4,"[-0.2,0.2]",,,,,,8,probe4,0.05,0.05,-0.2,0.1,#e69f00,#e69f00,,0.1,0.2,#cc79a7,#cc79a7,,0.2,0.1,#4A4A4A,#4A4A4A,,-0.2,0.2,#56b4e9,#d55e00,,0.2,-0.1,#0072b2,#0072b2,,AGQF6T924GL8N,001,2020-12-11_18h00.40.618,change-localization,2020.1.2,Win32,60,,,0,7,7,7,1,,
,,0.097777778,0.093333333,1,0,0,2.117,probe2,"[0.1,0.1]",,,,,,9,probe5,0.05,0.05,-0.1,0,#4A4A4A,#4A4A4A,,0.1,0.1,#56b4e9,#56b4e9,,-0.2,0.1,#009e73,#009e73,,0.2,0.1,#cc79a7,#cc79a7,,0.2,0.2,#d55e00,#f0e442,,AGQF6T924GL8N,001,2020-12-11_18h00.40.618,change-localization,2020.1.2,Win32,60,,,0,8,8,8,1,,
,,0.217777778,0.193333333,1,0,0,28.564,probe1,"[0.2,0.2]",,,,,,10,probe3,0.05,0.05,0.2,0.2,#f0e442,#f0e442,,0.1,-0.1,#e69f00,#e69f00,,0,0.1,#cc79a7,#4A4A4A,,-0.2,0.1,#56b4e9,#56b4e9,,0.2,0,#0072b2,#0072b2,,AGQF6T924GL8N,001,2020-12-11_18h00.40.618,change-localization,2020.1.2,Win32,60,,,0,9,9,9,1,,
,,0.095555556,-0.192222222,1,0,0,25.062,probe5,"[0.1,-0.2]",,,,,,11,probe5,0.05,0.05,0.2,0.2,#4A4A4A,#4A4A4A,,0.1,0.2,#0072b2,#0072b2,,0.1,-0.1,#cc79a7,#cc79a7,,0,-0.2,#009e73,#009e73,,0.1,-0.2,#f0e442,#d55e00,,AGQF6T924GL8N,001,2020-12-11_18h00.40.618,change-localization,2020.1.2,Win32,60,,,0,10,10,10,1,,
,,-0.108888889,-0.003333333,1,0,0,1.153,probe2,"[-0.1,0]",,,,,,12,probe4,0.05,0.05,-0.1,-0.1,#009e73,#009e73,,-0.1,0,#56b4e9,#56b4e9,,-0.1,-0.2,#0072b2,#0072b2,,0.1,0,#d55e00,#f0e442,,0,-0.1,#cc79a7,#cc79a7,,AGQF6T924GL8N,001,2020-12-11_18h00.40.618,change-localization,2020.1.2,Win32,60,,,0,11,11,11,1,,
,,-0.193333333,0.208888889,1,0,0,1.625,probe4,"[-0.2,0.2]",,,,,,13,probe4,0.05,0.05,0,-0.1,#f0e442,#f0e442,,0.1,-0.1,#d55e00,#d55e00,,0.1,0.1,#0072b2,#0072b2,,-0.2,0.2,#cc79a7,#4A4A4A,,0.1,0.2,#009e73,#009e73,,AGQF6T924GL8N,001,2020-12-11_18h00.40.618,change-localization,2020.1.2,Win32,60,,,0,12,12,12,1,,
,,0.104444444,0.101111111,1,0,0,1.438,probe4,"[0.1,0.1]",,,,,,14,probe5,0.05,0.05,0,0.2,#cc79a7,#cc79a7,,0,-0.1,#4A4A4A,#4A4A4A,,-0.2,0,#56b4e9,#56b4e9,,0.1,0.1,#0072b2,#0072b2,,0.1,0.2,#009e73,#e69f00,,AGQF6T924GL8N,001,2020-12-11_18h00.40.618,change-localization,2020.1.2,Win32,60,,,0,13,13,13,1,,
,,0.193333333,0.102222222,1,0,0,0.939,probe3,"[0.2,0.1]",,,,,,15,probe3,0.05,0.05,0.2,0.2,#cc79a7,#cc79a7,,0,0.2,#56b4e9,#56b4e9,,0.2,0.1,#d55e00,#4A4A4A,,0.1,-0.1,#f0e442,#f0e442,,0.2,-0.1,#0072b2,#0072b2,,AGQF6T924GL8N,001,2020-12-11_18h00.40.618,change-localization,2020.1.2,Win32,60,,,0,14,14,14,1,,
,,-0.186666667,0.086666667,1,0,0,1,probe4,"[-0.2,0.1]",,,,,,16,probe3,0.05,0.05,-0.2,-0.1,#f0e442,#f0e442,,-0.2,0.2,#d55e00,#d55e00,,0.1,0.1,#009e73,#4A4A4A,,-0.2,0.1,#56b4e9,#56b4e9,,0,-0.1,#cc79a7,#cc79a7,,AGQF6T924GL8N,001,2020-12-11_18h00.40.618,change-localization,2020.1.2,Win32,60,,,0,15,15,15,1,,
,,-0.205555556,-0.098888889,1,0,0,1.593,probe4,"[-0.2,-0.1]",,,,,,17,probe3,0.05,0.05,0.2,-0.1,#cc79a7,#cc79a7,,0,-0.2,#0072b2,#0072b2,,0,0.1,#4A4A4A,#e69f00,,-0.2,-0.1,#f0e442,#f0e442,,-0.1,-0.1,#009e73,#009e73,,AGQF6T924GL8N,001,2020-12-11_18h00.40.618,change-localization,2020.1.2,Win32,60,,,0,16,16,16,1,,
,,-0.096666667,0.213333333,1,0,0,1.625,probe2,"[-0.1,0.2]",,,,,,18,probe3,0.05,0.05,-0.1,0.1,#d55e00,#d55e00,,-0.1,0.2,#e69f00,#e69f00,,0.2,0,#009e73,#0072b2,,0.1,-0.1,#cc79a7,#cc79a7,,-0.2,0.2,#4A4A4A,#4A4A4A,,AGQF6T924GL8N,001,2020-12-11_18h00.40.618,change-localization,2020.1.2,Win32,60,,,0,17,17,17,1,,
,,-0.207777778,0.108888889,1,0,0,1.906,probe5,"[-0.2,0.1]",,,,,,19,probe3,0.05,0.05,-0.1,0.2,#0072b2,#0072b2,,0,-0.1,#4A4A4A,#4A4A4A,,-0.1,0.1,#e69f00,#009e73,,0.2,0.1,#d55e00,#d55e00,,-0.2,0.1,#cc79a7,#cc79a7,,AGQF6T924GL8N,001,2020-12-11_18h00.40.618,change-localization,2020.1.2,Win32,60,,,0,18,18,18,1,,
,,-0.004444444,-0.083333333,1,0,0,2.217,probe4,"[0,-0.1]",,,,,,20,probe4,0.05,0.05,0.2,0,#56b4e9,#56b4e9,,-0.1,0.2,#009e73,#009e73,,-0.2,-0.2,#e69f00,#e69f00,,0,-0.1,#f0e442,#cc79a7,,-0.1,0,#4A4A4A,#4A4A4A,,AGQF6T924GL8N,001,2020-12-11_18h00.40.618,change-localization,2020.1.2,Win32,60,,,0,19,19,19,1,,
,,0.2,0.105555556,1,0,0,1.561,probe5,"[0.2,0.1]",,,,,,21,probe3,0.05,0.05,-0.1,0.1,#0072b2,#0072b2,,-0.1,0.2,#009e73,#009e73,,0.2,0,#56b4e9,#4A4A4A,,-0.2,0.2,#f0e442,#f0e442,,0.2,0.1,#d55e00,#d55e00,,AGQF6T924GL8N,001,2020-12-11_18h00.40.618,change-localization,2020.1.2,Win32,60,,,0,20,20,20,1,,
,,0.014444444,-0.2,1,0,0,9.47,probe5,"[0,-0.2]",,,,,,22,probe4,0.05,0.05,0.2,-0.1,#d55e00,#d55e00,,0.2,0,#56b4e9,#56b4e9,,0.1,-0.2,#cc79a7,#cc79a7,,-0.2,-0.1,#4A4A4A,#009e73,,0,-0.2,#e69f00,#e69f00,,AGQF6T924GL8N,001,2020-12-11_18h00.40.618,change-localization,2020.1.2,Win32,60,,,0,21,21,21,1,,
,,0.096666667,0.103333333,1,0,0,21.564,probe1,"[0.1,0.1]",,,,,,23,probe4,0.05,0.05,0.1,0.1,#56b4e9,#56b4e9,,-0.2,-0.1,#0072b2,#0072b2,,0.2,0,#d55e00,#d55e00,,-0.2,-0.2,#cc79a7,#009e73,,0.1,-0.2,#4A4A4A,#4A4A4A,,AGQF6T924GL8N,001,2020-12-11_18h00.40.618,change-localization,2020.1.2,Win32,60,,,0,22,22,22,1,,
,,0.083333333,-0.091111111,1,0,0,0.813,probe3,"[0.1,-0.1]",,,,,,24,probe2,0.05,0.05,-0.1,-0.2,#4A4A4A,#4A4A4A,,0.2,0.2,#d55e00,#e69f00,,0.1,-0.1,#f0e442,#f0e442,,0.1,0.1,#56b4e9,#56b4e9,,-0.2,0.1,#cc79a7,#cc79a7,,AGQF6T924GL8N,001,2020-12-11_18h00.40.618,change-localization,2020.1.2,Win32,60,,,0,23,23,23,1,,
,,-0.09,-0.091111111,1,0,0,40.281,probe2,"[-0.1,-0.1]",,,,,,25,probe3,0.05,0.05,-0.2,-0.2,#f0e442,#f0e442,,-0.1,-0.1,#4A4A4A,#4A4A4A,,0.2,0,#d55e00,#cc79a7,,0,0.2,#0072b2,#0072b2,,-0.2,0.1,#009e73,#009e73,,AGQF6T924GL8N,001,2020-12-11_18h00.40.618,change-localization,2020.1.2,Win32,60,,,0,24,24,24,1,,
,,-0.22,-0.004444444,1,0,0,1.312,probe2,"[-0.2,0]",,,,,,26,probe3,0.05,0.05,0.1,-0.1,#e69f00,#e69f00,,-0.2,0,#56b4e9,#56b4e9,,-0.1,-0.2,#009e73,#d55e00,,-0.2,-0.1,#4A4A4A,#4A4A4A,,0.1,0,#cc79a7,#cc79a7,,AGQF6T924GL8N,001,2020-12-11_18h00.40.618,change-localization,2020.1.2,Win32,60,,,0,25,25,25,1,,
,,-0.198888889,-0.093333333,1,0,0,0.905,probe5,"[-0.2,-0.1]",,,,,,27,probe5,0.05,0.05,-0.1,-0.2,#009e73,#009e73,,0.2,0,#cc79a7,#cc79a7,,-0.1,-0.1,#e69f00,#e69f00,,0.1,0.1,#d55e00,#d55e00,,-0.2,-0.1,#4A4A4A,#0072b2,,AGQF6T924GL8N,001,2020-12-11_18h00.40.618,change-localization,2020.1.2,Win32,60,,,0,26,26,26,1,,
,,0.102222222,0.11,1,0,0,2.031,probe5,"[0.1,0.1]",,,,,,28,probe5,0.05,0.05,-0.1,0.2,#009e73,#009e73,,-0.2,0.1,#56b4e9,#56b4e9,,0,-0.2,#d55e00,#d55e00,,0.1,0,#0072b2,#0072b2,,0.1,0.1,#f0e442,#e69f00,,AGQF6T924GL8N,001,2020-12-11_18h00.40.618,change-localization,2020.1.2,Win32,60,,,0,27,27,27,1,,
,,0.121111111,0.2,1,0,0,2.376,probe4,"[0.1,0.2]",,,,,,29,probe1,0.05,0.05,0.1,-0.1,#4A4A4A,#56b4e9,,-0.2,0.2,#e69f00,#e69f00,,-0.1,-0.1,#f0e442,#f0e442,,0.1,0.2,#0072b2,#0072b2,,-0.1,-0.2,#cc79a7,#cc79a7,,AGQF6T924GL8N,001,2020-12-11_18h00.40.618,change-localization,2020.1.2,Win32,60,,,0,28,28,28,1,,
,,0.084444444,-0.218888889,1,0,0,2.062,probe4,"[0.1,-0.2]",,,,,,30,probe2,0.05,0.05,0.1,0.2,#f0e442,#f0e442,,-0.1,-0.2,#d55e00,#4A4A4A,,0,-0.2,#cc79a7,#cc79a7,,0.1,-0.2,#0072b2,#0072b2,,-0.2,0,#009e73,#009e73,,AGQF6T924GL8N,001,2020-12-11_18h00.40.618,change-localization,2020.1.2,Win32,60,,,0,29,29,29,1,,
,,0.118888889,-0.001111111,1,0,0,1.156,probe2,"[0.1,0]",,,,,,31,probe5,0.05,0.05,0,-0.2,#d55e00,#d55e00,,0.1,0,#e69f00,#e69f00,,0.1,0.2,#f0e442,#f0e442,,-0.2,-0.1,#cc79a7,#cc79a7,,-0.1,-0.1,#009e73,#4A4A4A,,AGQF6T924GL8N,001,2020-12-11_18h00.40.618,change-localization,2020.1.2,Win32,60,,,0,30,30,30,1,,
,,0.19,0.085555556,1,0,0,5.967,probe3,"[0.2,0.1]",,,,,,32,probe3,0.05,0.05,0.2,0.2,#56b4e9,#56b4e9,,-0.1,-0.1,#009e73,#009e73,,0.2,0.1,#cc79a7,#0072b2,,-0.2,0.1,#4A4A4A,#4A4A4A,,-0.2,-0.1,#f0e442,#f0e442,,AGQF6T924GL8N,001,2020-12-11_18h00.40.618,change-localization,2020.1.2,Win32,60,,,0,31,31,31,1,,
,,0.093333333,0.107777778,1,0,0,1.437,probe2,"[0.1,0.1]",,,,,,33,probe3,0.05,0.05,-0.1,-0.1,#0072b2,#0072b2,,0.1,0.1,#cc79a7,#cc79a7,,-0.1,0.1,#f0e442,#009e73,,0,-0.2,#56b4e9,#56b4e9,,0.1,0.2,#e69f00,#e69f00,,AGQF6T924GL8N,001,2020-12-11_18h00.40.618,change-localization,2020.1.2,Win32,60,,,0,32,32,32,1,,
,,0.211111111,0.092222222,1,0,0,0.279,probe1,"[0.2,0.1]",,,,,,34,probe5,0.05,0.05,0.2,0.1,#e69f00,#e69f00,,-0.2,0.1,#cc79a7,#cc79a7,,0.1,-0.2,#0072b2,#0072b2,,0.2,-0.2,#d55e00,#d55e00,,-0.2,0,#56b4e9,#009e73,,AGQF6T924GL8N,001,2020-12-11_18h00.40.618,change-localization,2020.1.2,Win32,60,,,0,33,33,33,1,,
,,0.096666667,0.175555556,1,0,0,4.127,probe5,"[0.1,0.2]",,,,,,35,probe2,0.05,0.05,0.2,0,#56b4e9,#56b4e9,,0.2,-0.1,#e69f00,#009e73,,0.1,-0.1,#f0e442,#f0e442,,0,0.2,#d55e00,#d55e00,,0.1,0.2,#cc79a7,#cc79a7,,AGQF6T924GL8N,001,2020-12-11_18h00.40.618,change-localization,2020.1.2,Win32,60,,,0,34,34,34,1,,
,,0.096666667,-0.01,1,0,0,0.844,probe5,"[0.1,0]",,,,,,36,probe3,0.05,0.05,0,0.1,#4A4A4A,#4A4A4A,,0.2,0.1,#009e73,#009e73,,-0.2,-0.1,#f0e442,#56b4e9,,-0.1,-0.1,#e69f00,#e69f00,,0.1,0,#0072b2,#0072b2,,AGQF6T924GL8N,001,2020-12-11_18h00.40.618,change-localization,2020.1.2,Win32,60,,,0,35,35,35,1,,
,,-0.091111111,0.186666667,1,0,0,1.407,probe4,"[-0.1,0.2]",,,,,,37,probe5,0.05,0.05,-0.2,0.1,#e69f00,#e69f00,,0.1,0.1,#0072b2,#0072b2,,-0.2,0,#d55e00,#d55e00,,-0.1,0.2,#cc79a7,#cc79a7,,0.1,0,#009e73,#f0e442,,AGQF6T924GL8N,001,2020-12-11_18h00.40.618,change-localization,2020.1.2,Win32,60,,,0,36,36,36,1,,
,,0.113333333,0.003333333,1,0,0,6.468,probe4,"[0.1,0]",,,,,,38,probe4,0.05,0.05,0.2,-0.2,#4A4A4A,#4A4A4A,,0.2,0,#0072b2,#0072b2,,0.1,-0.1,#e69f00,#e69f00,,0.1,0,#d55e00,#cc79a7,,0,-0.1,#009e73,#009e73,,AGQF6T924GL8N,001,2020-12-11_18h00.40.618,change-localization,2020.1.2,Win32,60,,,0,37,37,37,1,,
,,0.097777778,-0.11,1,0,0,1.03,probe1,"[0.1,-0.1]",,,,,,39,probe4,0.05,0.05,0.1,-0.1,#e69f00,#e69f00,,-0.2,-0.1,#cc79a7,#cc79a7,,0.2,0.1,#d55e00,#d55e00,,-0.2,0.2,#56b4e9,#f0e442,,0,-0.1,#0072b2,#0072b2,,AGQF6T924GL8N,001,2020-12-11_18h00.40.618,change-localization,2020.1.2,Win32,60,,,0,38,38,38,1,,
,,0.106666667,-0.086666667,1,0,0,0.844,probe5,"[0.1,-0.1]",,,,,,40,probe1,0.05,0.05,-0.2,0.1,#4A4A4A,#d55e00,,0.2,0.2,#009e73,#009e73,,-0.1,-0.1,#cc79a7,#cc79a7,,0.2,-0.2,#e69f00,#e69f00,,0.1,-0.1,#56b4e9,#56b4e9,,AGQF6T924GL8N,001,2020-12-11_18h00.40.618,change-localization,2020.1.2,Win32,60,,,0,39,39,39,1,,
,,-0.103333333,-0.002222222,1,0,0,1.532,probe4,"[-0.1,0]",,,,,,41,probe4,0.05,0.05,0.2,0.1,#009e73,#009e73,,-0.2,-0.1,#0072b2,#0072b2,,-0.2,-0.2,#56b4e9,#56b4e9,,-0.1,0,#f0e442,#cc79a7,,0,-0.2,#d55e00,#d55e00,,AGQF6T924GL8N,001,2020-12-11_18h00.40.618,change-localization,2020.1.2,Win32,60,,,0,40,40,40,1,,
,,-0.096666667,0.004444444,1,0,0,16.904,probe5,"[-0.1,0]",,,,,,42,probe4,0.05,0.05,-0.1,-0.2,#009e73,#009e73,,-0.1,0.1,#cc79a7,#cc79a7,,0.1,0.1,#56b4e9,#56b4e9,,0,-0.2,#e69f00,#d55e00,,-0.1,0,#0072b2,#0072b2,,AGQF6T924GL8N,001,2020-12-11_18h00.40.618,change-localization,2020.1.2,Win32,60,,,0,41,41,41,1,,
,,0.096666667,0.005555556,1,0,0,1.594,probe2,"[0.1,0]",,,,,,43,probe1,0.05,0.05,0.2,-0.1,#e69f00,#009e73,,0.1,0,#cc79a7,#cc79a7,,-0.2,-0.2,#f0e442,#f0e442,,0.2,-0.2,#56b4e9,#56b4e9,,-0.2,0.1,#4A4A4A,#4A4A4A,,AGQF6T924GL8N,001,2020-12-11_18h00.40.618,change-localization,2020.1.2,Win32,60,,,0,42,42,42,1,,
,,-0.081111111,0.185555556,1,0,0,1.691,probe1,"[-0.1,0.2]",,,,,,44,probe1,0.05,0.05,-0.1,0.2,#56b4e9,#e69f00,,0.2,0.1,#4A4A4A,#4A4A4A,,0.1,0,#cc79a7,#cc79a7,,0.1,0.2,#f0e442,#f0e442,,-0.1,-0.1,#d55e00,#d55e00,,AGQF6T924GL8N,001,2020-12-11_18h00.40.618,change-localization,2020.1.2,Win32,60,,,0,43,43,43,1,,
,,-0.092222222,0.208888889,1,0,0,1.375,probe4,"[-0.1,0.2]",,,,,,45,probe3,0.05,0.05,-0.2,0.2,#0072b2,#0072b2,,-0.2,-0.1,#56b4e9,#56b4e9,,-0.1,0.1,#f0e442,#e69f00,,-0.1,0.2,#d55e00,#d55e00,,0,-0.2,#cc79a7,#cc79a7,,AGQF6T924GL8N,001,2020-12-11_18h00.40.618,change-localization,2020.1.2,Win32,60,,,0,44,44,44,1,,
,,0.174444444,0.013333333,1,0,0,3.626,probe5,"[0.2,0]",,,,,,46,probe5,0.05,0.05,0.2,0.1,#0072b2,#0072b2,,0.1,0.2,#f0e442,#f0e442,,0.2,-0.2,#009e73,#009e73,,0.2,0.2,#4A4A4A,#4A4A4A,,0.2,0,#cc79a7,#e69f00,,AGQF6T924GL8N,001,2020-12-11_18h00.40.618,change-localization,2020.1.2,Win32,60,,,0,45,45,45,1,,
,,0.188888889,0.163333333,1,0,0,1.5,probe3,"[0.2,0.2]",,,,,,47,probe3,0.05,0.05,0,-0.1,#009e73,#009e73,,-0.2,0.2,#f0e442,#f0e442,,0.2,0.2,#56b4e9,#cc79a7,,-0.1,0.2,#4A4A4A,#4A4A4A,,-0.1,0.1,#e69f00,#e69f00,,AGQF6T924GL8N,001,2020-12-11_18h00.40.618,change-localization,2020.1.2,Win32,60,,,0,46,46,46,1,,
,,-0.196666667,-0.094444444,1,0,0,1.718,probe4,"[-0.2,-0.1]",,,,,,48,probe4,0.05,0.05,0.2,-0.2,#cc79a7,#cc79a7,,-0.1,0.1,#009e73,#009e73,,0.1,-0.2,#f0e442,#f0e442,,-0.2,-0.1,#d55e00,#0072b2,,-0.1,0,#56b4e9,#56b4e9,,AGQF6T924GL8N,001,2020-12-11_18h00.40.618,change-localization,2020.1.2,Win32,60,,,0,47,47,47,1,,
,,-0.096666667,0.215555556,1,0,0,2.378,probe3,"[-0.1,0.2]",,,,,,49,probe2,0.05,0.05,0,-0.2,#e69f00,#e69f00,,-0.2,0,#cc79a7,#0072b2,,-0.1,0.2,#f0e442,#f0e442,,0.1,0.2,#4A4A4A,#4A4A4A,,-0.1,-0.1,#56b4e9,#56b4e9,,AGQF6T924GL8N,001,2020-12-11_18h00.40.618,change-localization,2020.1.2,Win32,60,,,0,48,48,48,1,,
,,-0.091111111,0.004444444,1,0,0,1.78,probe4,"[-0.1,0]",,,,,,50,probe4,0.05,0.05,0.2,0.1,#0072b2,#0072b2,,0.1,0.1,#cc79a7,#cc79a7,,0.1,-0.2,#56b4e9,#56b4e9,,-0.1,0,#009e73,#e69f00,,0,0.1,#d55e00,#d55e00,,AGQF6T924GL8N,001,2020-12-11_18h00.40.618,change-localization,2020.1.2,Win32,60,,,0,49,49,49,1,,
,,,,,,,,,,,,,,,,,,,,,,,,,,,,,,,,,,,,,,,,,,,,AGQF6T924GL8N,001,2020-12-11_18h00.40.618,change-localization,2020.1.2,Win32,60,,,,,,,,c,13.285
