key_resp.keys,key_resp.rt,mouse.x,mouse.y,mouse.leftButton,mouse.midButton,mouse.rightButton,mouse.time,mouse.clicked_name,mouse.clicked_pos,training.thisRepN,training.thisTrialN,training.thisN,training.thisIndex,training.ran,trial,answer,height,width,x1,y1,stim_color1,probe_color1,copy_color1,x2,y2,stim_color2,probe_color2,copy_color2,x3,y3,stim_color3,probe_color3,copy_color3,x4,y4,stim_color4,probe_color4,copy_color4,x5,y5,stim_color5,probe_color5,copy_color5,participant,session,date,expName,psychopyVersion,OS,frameRate,key_resp_2.keys,key_resp_2.rt,trials.thisRepN,trials.thisTrialN,trials.thisN,trials.thisIndex,trials.ran,completion_keys.keys,completion_keys.rt
c,25.5176,0.194444444,-0.107407407,1,0,0,1.500775,probe4,"[0.2,-0.1]",0,0,0,0,1,1,probe4,0.05,0.05,0.1,0.2,#0072b2,#0072b2,#0072b2,0.1,-0.1,#e69f00,#e69f00,#e69f00,-0.1,-0.2,#cc79a7,#cc79a7,#cc79a7,0.2,-0.1,#4A4A4A,#f0e442,#FFFFFF,0.2,0,#009e73,#009e73,#009e73,AMLZT92RF3MYY,001,2020-12-11_20h29.04.824,change-localization,2020.1.2,Win32,60,,,,,,,,,
,,0.212037037,-0.012962963,1,0,0,4.16664,probe1,"[0.2,0]",0,1,1,1,1,2,probe1,0.05,0.05,0.2,0,#d55e00,#009e73,#FFFFFF,0.2,-0.1,#e69f00,#e69f00,#e69f00,0.1,0,#4A4A4A,#4A4A4A,#4A4A4A,-0.1,0.1,#56b4e9,#56b4e9,#56b4e9,-0.1,0,#cc79a7,#cc79a7,#cc79a7,AMLZT92RF3MYY,001,2020-12-11_20h29.04.824,change-localization,2020.1.2,Win32,60,,,,,,,,,
,,-0.197222222,-0.197222222,1,0,0,1.13356,probe1,"[-0.2,-0.2]",0,2,2,2,1,3,probe1,0.05,0.05,-0.2,-0.2,#f0e442,#009e73,#FFFFFF,0.2,-0.1,#d55e00,#d55e00,#d55e00,-0.2,0,#4A4A4A,#4A4A4A,#4A4A4A,-0.1,-0.1,#0072b2,#0072b2,#0072b2,0,-0.1,#56b4e9,#56b4e9,#56b4e9,AMLZT92RF3MYY,001,2020-12-11_20h29.04.824,change-localization,2020.1.2,Win32,60,,,,,,,,,
,,0.205555556,0.206481481,1,0,0,2.63362,probe1,"[0.2,0.2]",0,3,3,3,1,4,probe1,0.05,0.05,0.2,0.2,#d55e00,#56b4e9,#FFFFFF,-0.2,0.2,#f0e442,#f0e442,#f0e442,0.2,-0.2,#0072b2,#0072b2,#0072b2,-0.2,0,#cc79a7,#cc79a7,#cc79a7,-0.2,0.1,#4A4A4A,#4A4A4A,#4A4A4A,AMLZT92RF3MYY,001,2020-12-11_20h29.04.824,change-localization,2020.1.2,Win32,60,,,,,,,,,
,,-0.00462963,0.097222222,1,0,0,1.216685,probe3,"[0,0.1]",0,4,4,4,1,5,probe3,0.05,0.05,-0.2,0.1,#56b4e9,#56b4e9,#56b4e9,0,0.2,#009e73,#009e73,#009e73,0,0.1,#0072b2,#cc79a7,#FFFFFF,-0.1,-0.1,#4A4A4A,#4A4A4A,#4A4A4A,0.2,0,#f0e442,#f0e442,#f0e442,AMLZT92RF3MYY,001,2020-12-11_20h29.04.824,change-localization,2020.1.2,Win32,60,,,,,,,,,
,,-0.005555556,-0.205555556,1,0,0,3.69994,probe4,"[0,-0.2]",0,5,5,5,1,6,probe5,0.05,0.05,-0.1,0.1,#f0e442,#f0e442,#f0e442,0,0.1,#009e73,#009e73,#009e73,-0.2,0,#4A4A4A,#4A4A4A,#4A4A4A,0,-0.2,#d55e00,#d55e00,#d55e00,0.1,0,#cc79a7,#0072b2,#FFFFFF,AMLZT92RF3MYY,001,2020-12-11_20h29.04.824,change-localization,2020.1.2,Win32,60,,,,,,,,,
,,-0.190740741,-0.197222222,1,0,0,1.39987,probe1,"[-0.2,-0.2]",0,6,6,6,1,7,probe2,0.05,0.05,-0.2,-0.2,#4A4A4A,#4A4A4A,#4A4A4A,0.1,0.2,#0072b2,#d55e00,#FFFFFF,-0.1,-0.2,#f0e442,#f0e442,#f0e442,-0.2,0.2,#009e73,#009e73,#009e73,0.2,0.2,#e69f00,#e69f00,#e69f00,AMLZT92RF3MYY,001,2020-12-11_20h29.04.824,change-localization,2020.1.2,Win32,60,,,,,,,,,
,,0.100925926,-0.210185185,1,0,0,1.273325,probe1,"[0.1,-0.2]",0,7,7,7,1,8,probe1,0.05,0.05,0.1,-0.2,#009e73,#f0e442,#FFFFFF,-0.1,0,#d55e00,#d55e00,#d55e00,-0.1,0.1,#4A4A4A,#4A4A4A,#4A4A4A,-0.2,0,#cc79a7,#cc79a7,#cc79a7,0.2,0,#e69f00,#e69f00,#e69f00,AMLZT92RF3MYY,001,2020-12-11_20h29.04.824,change-localization,2020.1.2,Win32,60,,,,,,,,,
,,0.115740741,-0.193518519,1,0,0,1.23322,probe1,"[0.1,-0.2]",0,8,8,8,1,9,probe1,0.05,0.05,0.1,-0.2,#0072b2,#e69f00,#FFFFFF,-0.1,0.2,#f0e442,#f0e442,#f0e442,-0.2,0.1,#d55e00,#d55e00,#d55e00,0.2,0.2,#cc79a7,#cc79a7,#cc79a7,0.1,0.1,#56b4e9,#56b4e9,#56b4e9,AMLZT92RF3MYY,001,2020-12-11_20h29.04.824,change-localization,2020.1.2,Win32,60,,,,,,,,,
,,-0.103703704,-0.103703704,1,0,0,0.91667,probe1,"[-0.1,-0.1]",0,9,9,9,1,10,probe1,0.05,0.05,-0.1,-0.1,#4A4A4A,#f0e442,#FFFFFF,0,0.2,#cc79a7,#cc79a7,#cc79a7,0.2,-0.2,#e69f00,#e69f00,#e69f00,0.1,-0.2,#009e73,#009e73,#009e73,0.1,0.1,#d55e00,#d55e00,#d55e00,AMLZT92RF3MYY,001,2020-12-11_20h29.04.824,change-localization,2020.1.2,Win32,60,,,,,,,,,
,,-0.089814815,-0.015740741,1,0,0,2.500045,probe3,"[-0.1,0]",,,,,,1,probe2,0.05,0.05,-0.2,0.2,#009e73,#009e73,,-0.1,0.2,#f0e442,#e69f00,,-0.1,0,#0072b2,#0072b2,,0,-0.2,#cc79a7,#cc79a7,,0,0.2,#d55e00,#d55e00,,AMLZT92RF3MYY,001,2020-12-11_20h29.04.824,change-localization,2020.1.2,Win32,60,c,3.36834,0,0,0,0,1,,
,,-0.097222222,-0.118518519,1,0,0,1.68338,probe3,"[-0.1,-0.1]",,,,,,2,probe5,0.05,0.05,0,0.1,#009e73,#009e73,,0.2,0.1,#4A4A4A,#4A4A4A,,-0.1,-0.1,#cc79a7,#cc79a7,,0.1,0.1,#d55e00,#d55e00,,0,-0.1,#56b4e9,#e69f00,,AMLZT92RF3MYY,001,2020-12-11_20h29.04.824,change-localization,2020.1.2,Win32,60,,,0,1,1,1,1,,
,,-0.098148148,0.112037037,1,0,0,0.966615,probe4,"[-0.1,0.1]",,,,,,3,probe4,0.05,0.05,0.1,-0.1,#56b4e9,#56b4e9,,0.2,0,#f0e442,#f0e442,,0.2,-0.1,#e69f00,#e69f00,,-0.1,0.1,#4A4A4A,#009e73,,-0.1,0.2,#d55e00,#d55e00,,AMLZT92RF3MYY,001,2020-12-11_20h29.04.824,change-localization,2020.1.2,Win32,60,,,0,2,2,2,1,,
,,-0.187037037,-0.003703704,1,0,0,0.98324,probe5,"[-0.2,0]",,,,,,4,probe5,0.05,0.05,0.2,0,#56b4e9,#56b4e9,,-0.2,-0.2,#cc79a7,#cc79a7,,0,0.2,#4A4A4A,#4A4A4A,,0.2,-0.2,#e69f00,#e69f00,,-0.2,0,#f0e442,#009e73,,AMLZT92RF3MYY,001,2020-12-11_20h29.04.824,change-localization,2020.1.2,Win32,60,,,0,3,3,3,1,,
,,-0.097222222,-0.102777778,1,0,0,1.01652,probe3,"[-0.1,-0.1]",,,,,,5,probe3,0.05,0.05,-0.2,0.1,#4A4A4A,#4A4A4A,,0.2,0.2,#009e73,#009e73,,-0.1,-0.1,#0072b2,#f0e442,,0.2,0,#cc79a7,#cc79a7,,0.1,0.1,#e69f00,#e69f00,,AMLZT92RF3MYY,001,2020-12-11_20h29.04.824,change-localization,2020.1.2,Win32,60,,,0,4,4,4,1,,
,,0.001851852,0.196296296,1,0,0,3.20002,probe4,"[0,0.2]",,,,,,6,probe4,0.05,0.05,-0.1,0.1,#d55e00,#d55e00,,-0.2,0.2,#0072b2,#0072b2,,0,-0.1,#e69f00,#e69f00,,0,0.2,#56b4e9,#4A4A4A,,-0.2,-0.2,#009e73,#009e73,,AMLZT92RF3MYY,001,2020-12-11_20h29.04.824,change-localization,2020.1.2,Win32,60,,,0,5,5,5,1,,
,,0.20462963,-0.201851852,1,0,0,2.050075,probe5,"[0.2,-0.2]",,,,,,7,probe4,0.05,0.05,0.2,-0.1,#56b4e9,#56b4e9,,-0.1,-0.1,#e69f00,#e69f00,,-0.2,0.2,#009e73,#009e73,,0.2,0.2,#cc79a7,#4A4A4A,,0.2,-0.2,#d55e00,#d55e00,,AMLZT92RF3MYY,001,2020-12-11_20h29.04.824,change-localization,2020.1.2,Win32,60,,,0,6,6,6,1,,
,,-0.189814815,0.078703704,1,0,0,1.904275,probe1,"[-0.2,0.1]",,,,,,8,probe4,0.05,0.05,-0.2,0.1,#e69f00,#e69f00,,0.1,0.2,#cc79a7,#cc79a7,,0.2,0.1,#4A4A4A,#4A4A4A,,-0.2,0.2,#56b4e9,#d55e00,,0.2,-0.1,#0072b2,#0072b2,,AMLZT92RF3MYY,001,2020-12-11_20h29.04.824,change-localization,2020.1.2,Win32,60,,,0,7,7,7,1,,
,,0.212962963,0.092592593,1,0,0,1.23423,probe4,"[0.2,0.1]",,,,,,9,probe5,0.05,0.05,-0.1,0,#4A4A4A,#4A4A4A,,0.1,0.1,#56b4e9,#56b4e9,,-0.2,0.1,#009e73,#009e73,,0.2,0.1,#cc79a7,#cc79a7,,0.2,0.2,#d55e00,#f0e442,,AMLZT92RF3MYY,001,2020-12-11_20h29.04.824,change-localization,2020.1.2,Win32,60,,,0,8,8,8,1,,
,,-0.011111111,0.097222222,1,0,0,1.16676,probe3,"[0,0.1]",,,,,,10,probe3,0.05,0.05,0.2,0.2,#f0e442,#f0e442,,0.1,-0.1,#e69f00,#e69f00,,0,0.1,#cc79a7,#4A4A4A,,-0.2,0.1,#56b4e9,#56b4e9,,0.2,0,#0072b2,#0072b2,,AMLZT92RF3MYY,001,2020-12-11_20h29.04.824,change-localization,2020.1.2,Win32,60,,,0,9,9,9,1,,
,,0.096296296,-0.212037037,1,0,0,1.16666,probe5,"[0.1,-0.2]",,,,,,11,probe5,0.05,0.05,0.2,0.2,#4A4A4A,#4A4A4A,,0.1,0.2,#0072b2,#0072b2,,0.1,-0.1,#cc79a7,#cc79a7,,0,-0.2,#009e73,#009e73,,0.1,-0.2,#f0e442,#d55e00,,AMLZT92RF3MYY,001,2020-12-11_20h29.04.824,change-localization,2020.1.2,Win32,60,,,0,10,10,10,1,,
,,0.099074074,-0.015740741,1,0,0,1.65004,probe4,"[0.1,0]",,,,,,12,probe4,0.05,0.05,-0.1,-0.1,#009e73,#009e73,,-0.1,0,#56b4e9,#56b4e9,,-0.1,-0.2,#0072b2,#0072b2,,0.1,0,#d55e00,#f0e442,,0,-0.1,#cc79a7,#cc79a7,,AMLZT92RF3MYY,001,2020-12-11_20h29.04.824,change-localization,2020.1.2,Win32,60,,,0,11,11,11,1,,
,,-0.215740741,0.201851852,1,0,0,1.29985,probe4,"[-0.2,0.2]",,,,,,13,probe4,0.05,0.05,0,-0.1,#f0e442,#f0e442,,0.1,-0.1,#d55e00,#d55e00,,0.1,0.1,#0072b2,#0072b2,,-0.2,0.2,#cc79a7,#4A4A4A,,0.1,0.2,#009e73,#009e73,,AMLZT92RF3MYY,001,2020-12-11_20h29.04.824,change-localization,2020.1.2,Win32,60,,,0,12,12,12,1,,
,,0.015740741,-0.106481481,1,0,0,1.33313,probe2,"[0,-0.1]",,,,,,14,probe5,0.05,0.05,0,0.2,#cc79a7,#cc79a7,,0,-0.1,#4A4A4A,#4A4A4A,,-0.2,0,#56b4e9,#56b4e9,,0.1,0.1,#0072b2,#0072b2,,0.1,0.2,#009e73,#e69f00,,AMLZT92RF3MYY,001,2020-12-11_20h29.04.824,change-localization,2020.1.2,Win32,60,,,0,13,13,13,1,,
,,0.2,0.202777778,1,0,0,2.533445,probe1,"[0.2,0.2]",,,,,,15,probe3,0.05,0.05,0.2,0.2,#cc79a7,#cc79a7,,0,0.2,#56b4e9,#56b4e9,,0.2,0.1,#d55e00,#4A4A4A,,0.1,-0.1,#f0e442,#f0e442,,0.2,-0.1,#0072b2,#0072b2,,AMLZT92RF3MYY,001,2020-12-11_20h29.04.824,change-localization,2020.1.2,Win32,60,,,0,14,14,14,1,,
,,-0.012962963,-0.109259259,1,0,0,3.7652,probe5,"[0,-0.1]",,,,,,16,probe3,0.05,0.05,-0.2,-0.1,#f0e442,#f0e442,,-0.2,0.2,#d55e00,#d55e00,,0.1,0.1,#009e73,#4A4A4A,,-0.2,0.1,#56b4e9,#56b4e9,,0,-0.1,#cc79a7,#cc79a7,,AMLZT92RF3MYY,001,2020-12-11_20h29.04.824,change-localization,2020.1.2,Win32,60,,,0,15,15,15,1,,
,,-0.010185185,0.087962963,1,0,0,0.63333,probe3,"[0,0.1]",,,,,,17,probe3,0.05,0.05,0.2,-0.1,#cc79a7,#cc79a7,,0,-0.2,#0072b2,#0072b2,,0,0.1,#4A4A4A,#e69f00,,-0.2,-0.1,#f0e442,#f0e442,,-0.1,-0.1,#009e73,#009e73,,AMLZT92RF3MYY,001,2020-12-11_20h29.04.824,change-localization,2020.1.2,Win32,60,,,0,16,16,16,1,,
,,0.090740741,-0.103703704,1,0,0,4.41672,probe4,"[0.1,-0.1]",,,,,,18,probe3,0.05,0.05,-0.1,0.1,#d55e00,#d55e00,,-0.1,0.2,#e69f00,#e69f00,,0.2,0,#009e73,#0072b2,,0.1,-0.1,#cc79a7,#cc79a7,,-0.2,0.2,#4A4A4A,#4A4A4A,,AMLZT92RF3MYY,001,2020-12-11_20h29.04.824,change-localization,2020.1.2,Win32,60,,,0,17,17,17,1,,
,,-0.109259259,0.108333333,1,0,0,0.866715,probe3,"[-0.1,0.1]",,,,,,19,probe3,0.05,0.05,-0.1,0.2,#0072b2,#0072b2,,0,-0.1,#4A4A4A,#4A4A4A,,-0.1,0.1,#e69f00,#009e73,,0.2,0.1,#d55e00,#d55e00,,-0.2,0.1,#cc79a7,#cc79a7,,AMLZT92RF3MYY,001,2020-12-11_20h29.04.824,change-localization,2020.1.2,Win32,60,,,0,18,18,18,1,,
,,0.00462963,-0.106481481,1,0,0,1.21661,probe4,"[0,-0.1]",,,,,,20,probe4,0.05,0.05,0.2,0,#56b4e9,#56b4e9,,-0.1,0.2,#009e73,#009e73,,-0.2,-0.2,#e69f00,#e69f00,,0,-0.1,#f0e442,#cc79a7,,-0.1,0,#4A4A4A,#4A4A4A,,AMLZT92RF3MYY,001,2020-12-11_20h29.04.824,change-localization,2020.1.2,Win32,60,,,0,19,19,19,1,,
,,0.207407407,0,1,0,0,1.434325,probe3,"[0.2,0]",,,,,,21,probe3,0.05,0.05,-0.1,0.1,#0072b2,#0072b2,,-0.1,0.2,#009e73,#009e73,,0.2,0,#56b4e9,#4A4A4A,,-0.2,0.2,#f0e442,#f0e442,,0.2,0.1,#d55e00,#d55e00,,AMLZT92RF3MYY,001,2020-12-11_20h29.04.824,change-localization,2020.1.2,Win32,60,,,0,20,20,20,1,,
,,-0.19537037,-0.103703704,1,0,0,1.01662,probe4,"[-0.2,-0.1]",,,,,,22,probe4,0.05,0.05,0.2,-0.1,#d55e00,#d55e00,,0.2,0,#56b4e9,#56b4e9,,0.1,-0.2,#cc79a7,#cc79a7,,-0.2,-0.1,#4A4A4A,#009e73,,0,-0.2,#e69f00,#e69f00,,AMLZT92RF3MYY,001,2020-12-11_20h29.04.824,change-localization,2020.1.2,Win32,60,,,0,21,21,21,1,,
,,-0.201851852,-0.19537037,1,0,0,0.93325,probe4,"[-0.2,-0.2]",,,,,,23,probe4,0.05,0.05,0.1,0.1,#56b4e9,#56b4e9,,-0.2,-0.1,#0072b2,#0072b2,,0.2,0,#d55e00,#d55e00,,-0.2,-0.2,#cc79a7,#009e73,,0.1,-0.2,#4A4A4A,#4A4A4A,,AMLZT92RF3MYY,001,2020-12-11_20h29.04.824,change-localization,2020.1.2,Win32,60,,,0,22,22,22,1,,
,,0.107407407,0.09537037,1,0,0,2.94998,probe4,"[0.1,0.1]",,,,,,24,probe2,0.05,0.05,-0.1,-0.2,#4A4A4A,#4A4A4A,,0.2,0.2,#d55e00,#e69f00,,0.1,-0.1,#f0e442,#f0e442,,0.1,0.1,#56b4e9,#56b4e9,,-0.2,0.1,#cc79a7,#cc79a7,,AMLZT92RF3MYY,001,2020-12-11_20h29.04.824,change-localization,2020.1.2,Win32,60,,,0,23,23,23,1,,
,,0.206481481,-0.011111111,1,0,0,2.33354,probe3,"[0.2,0]",,,,,,25,probe3,0.05,0.05,-0.2,-0.2,#f0e442,#f0e442,,-0.1,-0.1,#4A4A4A,#4A4A4A,,0.2,0,#d55e00,#cc79a7,,0,0.2,#0072b2,#0072b2,,-0.2,0.1,#009e73,#009e73,,AMLZT92RF3MYY,001,2020-12-11_20h29.04.824,change-localization,2020.1.2,Win32,60,,,0,24,24,24,1,,
,,-0.090740741,-0.203703704,1,0,0,1.64978,probe3,"[-0.1,-0.2]",,,,,,26,probe3,0.05,0.05,0.1,-0.1,#e69f00,#e69f00,,-0.2,0,#56b4e9,#56b4e9,,-0.1,-0.2,#009e73,#d55e00,,-0.2,-0.1,#4A4A4A,#4A4A4A,,0.1,0,#cc79a7,#cc79a7,,AMLZT92RF3MYY,001,2020-12-11_20h29.04.824,change-localization,2020.1.2,Win32,60,,,0,25,25,25,1,,
,,-0.202777778,-0.100925926,1,0,0,0.95004,probe5,"[-0.2,-0.1]",,,,,,27,probe5,0.05,0.05,-0.1,-0.2,#009e73,#009e73,,0.2,0,#cc79a7,#cc79a7,,-0.1,-0.1,#e69f00,#e69f00,,0.1,0.1,#d55e00,#d55e00,,-0.2,-0.1,#4A4A4A,#0072b2,,AMLZT92RF3MYY,001,2020-12-11_20h29.04.824,change-localization,2020.1.2,Win32,60,,,0,26,26,26,1,,
,,0.012037037,-0.201851852,1,0,0,1.850175,probe3,"[0,-0.2]",,,,,,28,probe5,0.05,0.05,-0.1,0.2,#009e73,#009e73,,-0.2,0.1,#56b4e9,#56b4e9,,0,-0.2,#d55e00,#d55e00,,0.1,0,#0072b2,#0072b2,,0.1,0.1,#f0e442,#e69f00,,AMLZT92RF3MYY,001,2020-12-11_20h29.04.824,change-localization,2020.1.2,Win32,60,,,0,27,27,27,1,,
,,0.118518519,-0.121296296,1,0,0,1.54982,probe1,"[0.1,-0.1]",,,,,,29,probe1,0.05,0.05,0.1,-0.1,#4A4A4A,#56b4e9,,-0.2,0.2,#e69f00,#e69f00,,-0.1,-0.1,#f0e442,#f0e442,,0.1,0.2,#0072b2,#0072b2,,-0.1,-0.2,#cc79a7,#cc79a7,,AMLZT92RF3MYY,001,2020-12-11_20h29.04.824,change-localization,2020.1.2,Win32,60,,,0,28,28,28,1,,
,,-0.10462963,-0.203703704,1,0,0,1.083245,probe2,"[-0.1,-0.2]",,,,,,30,probe2,0.05,0.05,0.1,0.2,#f0e442,#f0e442,,-0.1,-0.2,#d55e00,#4A4A4A,,0,-0.2,#cc79a7,#cc79a7,,0.1,-0.2,#0072b2,#0072b2,,-0.2,0,#009e73,#009e73,,AMLZT92RF3MYY,001,2020-12-11_20h29.04.824,change-localization,2020.1.2,Win32,60,,,0,29,29,29,1,,
,,-0.094444444,-0.096296296,1,0,0,1.0999,probe5,"[-0.1,-0.1]",,,,,,31,probe5,0.05,0.05,0,-0.2,#d55e00,#d55e00,,0.1,0,#e69f00,#e69f00,,0.1,0.2,#f0e442,#f0e442,,-0.2,-0.1,#cc79a7,#cc79a7,,-0.1,-0.1,#009e73,#4A4A4A,,AMLZT92RF3MYY,001,2020-12-11_20h29.04.824,change-localization,2020.1.2,Win32,60,,,0,30,30,30,1,,
,,0.20462963,0.198148148,1,0,0,2.599825,probe1,"[0.2,0.2]",,,,,,32,probe3,0.05,0.05,0.2,0.2,#56b4e9,#56b4e9,,-0.1,-0.1,#009e73,#009e73,,0.2,0.1,#cc79a7,#0072b2,,-0.2,0.1,#4A4A4A,#4A4A4A,,-0.2,-0.1,#f0e442,#f0e442,,AMLZT92RF3MYY,001,2020-12-11_20h29.04.824,change-localization,2020.1.2,Win32,60,,,0,31,31,31,1,,
,,-0.094444444,0.098148148,1,0,0,1.251335,probe3,"[-0.1,0.1]",,,,,,33,probe3,0.05,0.05,-0.1,-0.1,#0072b2,#0072b2,,0.1,0.1,#cc79a7,#cc79a7,,-0.1,0.1,#f0e442,#009e73,,0,-0.2,#56b4e9,#56b4e9,,0.1,0.2,#e69f00,#e69f00,,AMLZT92RF3MYY,001,2020-12-11_20h29.04.824,change-localization,2020.1.2,Win32,60,,,0,32,32,32,1,,
,,-0.19537037,0.003703704,1,0,0,1.133445,probe5,"[-0.2,0]",,,,,,34,probe5,0.05,0.05,0.2,0.1,#e69f00,#e69f00,,-0.2,0.1,#cc79a7,#cc79a7,,0.1,-0.2,#0072b2,#0072b2,,0.2,-0.2,#d55e00,#d55e00,,-0.2,0,#56b4e9,#009e73,,AMLZT92RF3MYY,001,2020-12-11_20h29.04.824,change-localization,2020.1.2,Win32,60,,,0,33,33,33,1,,
,,0.106481481,-0.109259259,1,0,0,2.049965,probe3,"[0.1,-0.1]",,,,,,35,probe2,0.05,0.05,0.2,0,#56b4e9,#56b4e9,,0.2,-0.1,#e69f00,#009e73,,0.1,-0.1,#f0e442,#f0e442,,0,0.2,#d55e00,#d55e00,,0.1,0.2,#cc79a7,#cc79a7,,AMLZT92RF3MYY,001,2020-12-11_20h29.04.824,change-localization,2020.1.2,Win32,60,,,0,34,34,34,1,,
,,-0.215740741,-0.1,1,0,0,0.951365,probe3,"[-0.2,-0.1]",,,,,,36,probe3,0.05,0.05,0,0.1,#4A4A4A,#4A4A4A,,0.2,0.1,#009e73,#009e73,,-0.2,-0.1,#f0e442,#56b4e9,,-0.1,-0.1,#e69f00,#e69f00,,0.1,0,#0072b2,#0072b2,,AMLZT92RF3MYY,001,2020-12-11_20h29.04.824,change-localization,2020.1.2,Win32,60,,,0,35,35,35,1,,
,,0.097222222,0.012037037,1,0,0,1.24446,probe5,"[0.1,0]",,,,,,37,probe5,0.05,0.05,-0.2,0.1,#e69f00,#e69f00,,0.1,0.1,#0072b2,#0072b2,,-0.2,0,#d55e00,#d55e00,,-0.1,0.2,#cc79a7,#cc79a7,,0.1,0,#009e73,#f0e442,,AMLZT92RF3MYY,001,2020-12-11_20h29.04.824,change-localization,2020.1.2,Win32,60,,,0,36,36,36,1,,
,,0.110185185,0.009259259,1,0,0,1.148895,probe4,"[0.1,0]",,,,,,38,probe4,0.05,0.05,0.2,-0.2,#4A4A4A,#4A4A4A,,0.2,0,#0072b2,#0072b2,,0.1,-0.1,#e69f00,#e69f00,,0.1,0,#d55e00,#cc79a7,,0,-0.1,#009e73,#009e73,,AMLZT92RF3MYY,001,2020-12-11_20h29.04.824,change-localization,2020.1.2,Win32,60,,,0,37,37,37,1,,
,,-0.19537037,0.203703704,1,0,0,1.266515,probe4,"[-0.2,0.2]",,,,,,39,probe4,0.05,0.05,0.1,-0.1,#e69f00,#e69f00,,-0.2,-0.1,#cc79a7,#cc79a7,,0.2,0.1,#d55e00,#d55e00,,-0.2,0.2,#56b4e9,#f0e442,,0,-0.1,#0072b2,#0072b2,,AMLZT92RF3MYY,001,2020-12-11_20h29.04.824,change-localization,2020.1.2,Win32,60,,,0,38,38,38,1,,
,,-0.2,0.106481481,1,0,0,0.88344,probe1,"[-0.2,0.1]",,,,,,40,probe1,0.05,0.05,-0.2,0.1,#4A4A4A,#d55e00,,0.2,0.2,#009e73,#009e73,,-0.1,-0.1,#cc79a7,#cc79a7,,0.2,-0.2,#e69f00,#e69f00,,0.1,-0.1,#56b4e9,#56b4e9,,AMLZT92RF3MYY,001,2020-12-11_20h29.04.824,change-localization,2020.1.2,Win32,60,,,0,39,39,39,1,,
,,-0.198148148,-0.2,1,0,0,3.616595,probe3,"[-0.2,-0.2]",,,,,,41,probe4,0.05,0.05,0.2,0.1,#009e73,#009e73,,-0.2,-0.1,#0072b2,#0072b2,,-0.2,-0.2,#56b4e9,#56b4e9,,-0.1,0,#f0e442,#cc79a7,,0,-0.2,#d55e00,#d55e00,,AMLZT92RF3MYY,001,2020-12-11_20h29.04.824,change-localization,2020.1.2,Win32,60,,,0,40,40,40,1,,
,,0.089814815,0.101851852,1,0,0,2.65004,probe3,"[0.1,0.1]",,,,,,42,probe4,0.05,0.05,-0.1,-0.2,#009e73,#009e73,,-0.1,0.1,#cc79a7,#cc79a7,,0.1,0.1,#56b4e9,#56b4e9,,0,-0.2,#e69f00,#d55e00,,-0.1,0,#0072b2,#0072b2,,AMLZT92RF3MYY,001,2020-12-11_20h29.04.824,change-localization,2020.1.2,Win32,60,,,0,41,41,41,1,,
,,0.191666667,-0.199074074,1,0,0,1.266545,probe4,"[0.2,-0.2]",,,,,,43,probe1,0.05,0.05,0.2,-0.1,#e69f00,#009e73,,0.1,0,#cc79a7,#cc79a7,,-0.2,-0.2,#f0e442,#f0e442,,0.2,-0.2,#56b4e9,#56b4e9,,-0.2,0.1,#4A4A4A,#4A4A4A,,AMLZT92RF3MYY,001,2020-12-11_20h29.04.824,change-localization,2020.1.2,Win32,60,,,0,42,42,42,1,,
,,-0.099074074,0.198148148,1,0,0,1.18471,probe1,"[-0.1,0.2]",,,,,,44,probe1,0.05,0.05,-0.1,0.2,#56b4e9,#e69f00,,0.2,0.1,#4A4A4A,#4A4A4A,,0.1,0,#cc79a7,#cc79a7,,0.1,0.2,#f0e442,#f0e442,,-0.1,-0.1,#d55e00,#d55e00,,AMLZT92RF3MYY,001,2020-12-11_20h29.04.824,change-localization,2020.1.2,Win32,60,,,0,43,43,43,1,,
,,0.013888889,-0.214814815,1,0,0,1.099875,probe5,"[0,-0.2]",,,,,,45,probe3,0.05,0.05,-0.2,0.2,#0072b2,#0072b2,,-0.2,-0.1,#56b4e9,#56b4e9,,-0.1,0.1,#f0e442,#e69f00,,-0.1,0.2,#d55e00,#d55e00,,0,-0.2,#cc79a7,#cc79a7,,AMLZT92RF3MYY,001,2020-12-11_20h29.04.824,change-localization,2020.1.2,Win32,60,,,0,44,44,44,1,,
,,0.192592593,-0.205555556,1,0,0,1.270695,probe3,"[0.2,-0.2]",,,,,,46,probe5,0.05,0.05,0.2,0.1,#0072b2,#0072b2,,0.1,0.2,#f0e442,#f0e442,,0.2,-0.2,#009e73,#009e73,,0.2,0.2,#4A4A4A,#4A4A4A,,0.2,0,#cc79a7,#e69f00,,AMLZT92RF3MYY,001,2020-12-11_20h29.04.824,change-localization,2020.1.2,Win32,60,,,0,45,45,45,1,,
,,0.210185185,0.203703704,1,0,0,1.04991,probe3,"[0.2,0.2]",,,,,,47,probe3,0.05,0.05,0,-0.1,#009e73,#009e73,,-0.2,0.2,#f0e442,#f0e442,,0.2,0.2,#56b4e9,#cc79a7,,-0.1,0.2,#4A4A4A,#4A4A4A,,-0.1,0.1,#e69f00,#e69f00,,AMLZT92RF3MYY,001,2020-12-11_20h29.04.824,change-localization,2020.1.2,Win32,60,,,0,46,46,46,1,,
,,-0.094444444,0.097222222,1,0,0,1.533475,probe2,"[-0.1,0.1]",,,,,,48,probe4,0.05,0.05,0.2,-0.2,#cc79a7,#cc79a7,,-0.1,0.1,#009e73,#009e73,,0.1,-0.2,#f0e442,#f0e442,,-0.2,-0.1,#d55e00,#0072b2,,-0.1,0,#56b4e9,#56b4e9,,AMLZT92RF3MYY,001,2020-12-11_20h29.04.824,change-localization,2020.1.2,Win32,60,,,0,47,47,47,1,,
,,-0.212962963,-0.001851852,1,0,0,1.033275,probe2,"[-0.2,0]",,,,,,49,probe2,0.05,0.05,0,-0.2,#e69f00,#e69f00,,-0.2,0,#cc79a7,#0072b2,,-0.1,0.2,#f0e442,#f0e442,,0.1,0.2,#4A4A4A,#4A4A4A,,-0.1,-0.1,#56b4e9,#56b4e9,,AMLZT92RF3MYY,001,2020-12-11_20h29.04.824,change-localization,2020.1.2,Win32,60,,,0,48,48,48,1,,
,,-0.10462963,0,1,0,0,0.916735,probe4,"[-0.1,0]",,,,,,50,probe4,0.05,0.05,0.2,0.1,#0072b2,#0072b2,,0.1,0.1,#cc79a7,#cc79a7,,0.1,-0.2,#56b4e9,#56b4e9,,-0.1,0,#009e73,#e69f00,,0,0.1,#d55e00,#d55e00,,AMLZT92RF3MYY,001,2020-12-11_20h29.04.824,change-localization,2020.1.2,Win32,60,,,0,49,49,49,1,,
,,,,,,,,,,,,,,,,,,,,,,,,,,,,,,,,,,,,,,,,,,,,AMLZT92RF3MYY,001,2020-12-11_20h29.04.824,change-localization,2020.1.2,Win32,60,,,,,,,,c,3.92567
