key_resp.keys,key_resp.rt,mouse.x,mouse.y,mouse.leftButton,mouse.midButton,mouse.rightButton,mouse.time,mouse.clicked_name,mouse.clicked_pos,training.thisRepN,training.thisTrialN,training.thisN,training.thisIndex,training.ran,trial,answer,height,width,x1,y1,stim_color1,probe_color1,copy_color1,x2,y2,stim_color2,probe_color2,copy_color2,x3,y3,stim_color3,probe_color3,copy_color3,x4,y4,stim_color4,probe_color4,copy_color4,x5,y5,stim_color5,probe_color5,copy_color5,participant,session,date,expName,psychopyVersion,OS,frameRate,key_resp_2.keys,key_resp_2.rt,trials.thisRepN,trials.thisTrialN,trials.thisN,trials.thisIndex,trials.ran,completion_keys.keys,completion_keys.rt
c,17.979,-0.083333333,-0.1875,1,0,0,4.780999999,probe3,"[-0.1,-0.2]",0,0,0,0,1,1,probe4,0.05,0.05,0.1,0.2,#0072b2,#0072b2,#0072b2,0.1,-0.1,#e69f00,#e69f00,#e69f00,-0.1,-0.2,#cc79a7,#cc79a7,#cc79a7,0.2,-0.1,#4A4A4A,#f0e442,#FFFFFF,0.2,0,#009e73,#009e73,#009e73,APMUZYFANYEZ3,001,2020-12-12_09h05.00.802,change-localization,2020.1.2,Win32,60,,,,,,,,,
,,0.109375,-0.010416667,1,0,0,0.797999999,probe3,"[0.1,0]",0,1,1,1,1,2,probe1,0.05,0.05,0.2,0,#d55e00,#009e73,#FFFFFF,0.2,-0.1,#e69f00,#e69f00,#e69f00,0.1,0,#4A4A4A,#4A4A4A,#4A4A4A,-0.1,0.1,#56b4e9,#56b4e9,#56b4e9,-0.1,0,#cc79a7,#cc79a7,#cc79a7,APMUZYFANYEZ3,001,2020-12-12_09h05.00.802,change-localization,2020.1.2,Win32,60,,,,,,,,,
,,-0.1875,-0.0078125,1,0,0,1.001,probe3,"[-0.2,0]",0,2,2,2,1,3,probe1,0.05,0.05,-0.2,-0.2,#f0e442,#009e73,#FFFFFF,0.2,-0.1,#d55e00,#d55e00,#d55e00,-0.2,0,#4A4A4A,#4A4A4A,#4A4A4A,-0.1,-0.1,#0072b2,#0072b2,#0072b2,0,-0.1,#56b4e9,#56b4e9,#56b4e9,APMUZYFANYEZ3,001,2020-12-12_09h05.00.802,change-localization,2020.1.2,Win32,60,,,,,,,,,
,,0.209635417,0.209635417,1,0,0,1.373,probe1,"[0.2,0.2]",0,3,3,3,1,4,probe1,0.05,0.05,0.2,0.2,#d55e00,#56b4e9,#FFFFFF,-0.2,0.2,#f0e442,#f0e442,#f0e442,0.2,-0.2,#0072b2,#0072b2,#0072b2,-0.2,0,#cc79a7,#cc79a7,#cc79a7,-0.2,0.1,#4A4A4A,#4A4A4A,#4A4A4A,APMUZYFANYEZ3,001,2020-12-12_09h05.00.802,change-localization,2020.1.2,Win32,60,,,,,,,,,
,,-0.194010417,0.08203125,1,0,0,0.664,probe1,"[-0.2,0.1]",0,4,4,4,1,5,probe3,0.05,0.05,-0.2,0.1,#56b4e9,#56b4e9,#56b4e9,0,0.2,#009e73,#009e73,#009e73,0,0.1,#0072b2,#cc79a7,#FFFFFF,-0.1,-0.1,#4A4A4A,#4A4A4A,#4A4A4A,0.2,0,#f0e442,#f0e442,#f0e442,APMUZYFANYEZ3,001,2020-12-12_09h05.00.802,change-localization,2020.1.2,Win32,60,,,,,,,,,
,,0.098958333,-0.005208333,1,0,0,0.990999999,probe5,"[0.1,0]",0,5,5,5,1,6,probe5,0.05,0.05,-0.1,0.1,#f0e442,#f0e442,#f0e442,0,0.1,#009e73,#009e73,#009e73,-0.2,0,#4A4A4A,#4A4A4A,#4A4A4A,0,-0.2,#d55e00,#d55e00,#d55e00,0.1,0,#cc79a7,#0072b2,#FFFFFF,APMUZYFANYEZ3,001,2020-12-12_09h05.00.802,change-localization,2020.1.2,Win32,60,,,,,,,,,
,,-0.0896,-0.2088,1,0,0,14.755,probe3,"[-0.1,-0.2]",0,6,6,6,1,7,probe2,0.05,0.05,-0.2,-0.2,#4A4A4A,#4A4A4A,#4A4A4A,0.1,0.2,#0072b2,#d55e00,#FFFFFF,-0.1,-0.2,#f0e442,#f0e442,#f0e442,-0.2,0.2,#009e73,#009e73,#009e73,0.2,0.2,#e69f00,#e69f00,#e69f00,APMUZYFANYEZ3,001,2020-12-12_09h05.00.802,change-localization,2020.1.2,Win32,60,,,,,,,,,
,,-0.088,-0.0008,1,0,0,1.342999999,probe2,"[-0.1,0]",0,7,7,7,1,8,probe1,0.05,0.05,0.1,-0.2,#009e73,#f0e442,#FFFFFF,-0.1,0,#d55e00,#d55e00,#d55e00,-0.1,0.1,#4A4A4A,#4A4A4A,#4A4A4A,-0.2,0,#cc79a7,#cc79a7,#cc79a7,0.2,0,#e69f00,#e69f00,#e69f00,APMUZYFANYEZ3,001,2020-12-12_09h05.00.802,change-localization,2020.1.2,Win32,60,,,,,,,,,
,,0.1152,0.084,1,0,0,8.187000001,probe5,"[0.1,0.1]",0,8,8,8,1,9,probe1,0.05,0.05,0.1,-0.2,#0072b2,#e69f00,#FFFFFF,-0.1,0.2,#f0e442,#f0e442,#f0e442,-0.2,0.1,#d55e00,#d55e00,#d55e00,0.2,0.2,#cc79a7,#cc79a7,#cc79a7,0.1,0.1,#56b4e9,#56b4e9,#56b4e9,APMUZYFANYEZ3,001,2020-12-12_09h05.00.802,change-localization,2020.1.2,Win32,60,,,,,,,,,
,,-0.0912,-0.1048,1,0,0,1.25,probe1,"[-0.1,-0.1]",0,9,9,9,1,10,probe1,0.05,0.05,-0.1,-0.1,#4A4A4A,#f0e442,#FFFFFF,0,0.2,#cc79a7,#cc79a7,#cc79a7,0.2,-0.2,#e69f00,#e69f00,#e69f00,0.1,-0.2,#009e73,#009e73,#009e73,0.1,0.1,#d55e00,#d55e00,#d55e00,APMUZYFANYEZ3,001,2020-12-12_09h05.00.802,change-localization,2020.1.2,Win32,60,,,,,,,,,
,,-0.0912,0.0024,1,0,0,6.53,probe3,"[-0.1,0]",,,,,,1,probe2,0.05,0.05,-0.2,0.2,#009e73,#009e73,,-0.1,0.2,#f0e442,#e69f00,,-0.1,0,#0072b2,#0072b2,,0,-0.2,#cc79a7,#cc79a7,,0,0.2,#d55e00,#d55e00,,APMUZYFANYEZ3,001,2020-12-12_09h05.00.802,change-localization,2020.1.2,Win32,60,c,19.942,0,0,0,0,1,,
,,-0.0848,-0.1016,1,0,0,1.155,probe3,"[-0.1,-0.1]",,,,,,2,probe5,0.05,0.05,0,0.1,#009e73,#009e73,,0.2,0.1,#4A4A4A,#4A4A4A,,-0.1,-0.1,#cc79a7,#cc79a7,,0.1,0.1,#d55e00,#d55e00,,0,-0.1,#56b4e9,#e69f00,,APMUZYFANYEZ3,001,2020-12-12_09h05.00.802,change-localization,2020.1.2,Win32,60,,,0,1,1,1,1,,
,,0.1088,-0.1192,1,0,0,0.780999999,probe1,"[0.1,-0.1]",,,,,,3,probe4,0.05,0.05,0.1,-0.1,#56b4e9,#56b4e9,,0.2,0,#f0e442,#f0e442,,0.2,-0.1,#e69f00,#e69f00,,-0.1,0.1,#4A4A4A,#009e73,,-0.1,0.2,#d55e00,#d55e00,,APMUZYFANYEZ3,001,2020-12-12_09h05.00.802,change-localization,2020.1.2,Win32,60,,,0,2,2,2,1,,
,,-0.208,-0.012,1,0,0,5.624,probe5,"[-0.2,0]",,,,,,4,probe5,0.05,0.05,0.2,0,#56b4e9,#56b4e9,,-0.2,-0.2,#cc79a7,#cc79a7,,0,0.2,#4A4A4A,#4A4A4A,,0.2,-0.2,#e69f00,#e69f00,,-0.2,0,#f0e442,#009e73,,APMUZYFANYEZ3,001,2020-12-12_09h05.00.802,change-localization,2020.1.2,Win32,60,,,0,3,3,3,1,,
,,0.2112,0.0072,1,0,0,1.155,probe4,"[0.2,0]",,,,,,5,probe3,0.05,0.05,-0.2,0.1,#4A4A4A,#4A4A4A,,0.2,0.2,#009e73,#009e73,,-0.1,-0.1,#0072b2,#f0e442,,0.2,0,#cc79a7,#cc79a7,,0.1,0.1,#e69f00,#e69f00,,APMUZYFANYEZ3,001,2020-12-12_09h05.00.802,change-localization,2020.1.2,Win32,60,,,0,4,4,4,1,,
,,-0.0912,0.1064,1,0,0,1.281,probe1,"[-0.1,0.1]",,,,,,6,probe4,0.05,0.05,-0.1,0.1,#d55e00,#d55e00,,-0.2,0.2,#0072b2,#0072b2,,0,-0.1,#e69f00,#e69f00,,0,0.2,#56b4e9,#4A4A4A,,-0.2,-0.2,#009e73,#009e73,,APMUZYFANYEZ3,001,2020-12-12_09h05.00.802,change-localization,2020.1.2,Win32,60,,,0,5,5,5,1,,
,,-0.1024,-0.0904,1,0,0,1.155,probe2,"[-0.1,-0.1]",,,,,,7,probe4,0.05,0.05,0.2,-0.1,#56b4e9,#56b4e9,,-0.1,-0.1,#e69f00,#e69f00,,-0.2,0.2,#009e73,#009e73,,0.2,0.2,#cc79a7,#4A4A4A,,0.2,-0.2,#d55e00,#d55e00,,APMUZYFANYEZ3,001,2020-12-12_09h05.00.802,change-localization,2020.1.2,Win32,60,,,0,6,6,6,1,,
,,-0.1968,0.1,1,0,0,2.562999999,probe1,"[-0.2,0.1]",,,,,,8,probe4,0.05,0.05,-0.2,0.1,#e69f00,#e69f00,,0.1,0.2,#cc79a7,#cc79a7,,0.2,0.1,#4A4A4A,#4A4A4A,,-0.2,0.2,#56b4e9,#d55e00,,0.2,-0.1,#0072b2,#0072b2,,APMUZYFANYEZ3,001,2020-12-12_09h05.00.802,change-localization,2020.1.2,Win32,60,,,0,7,7,7,1,,
,,0.1136,0.0936,1,0,0,3.061000001,probe2,"[0.1,0.1]",,,,,,9,probe5,0.05,0.05,-0.1,0,#4A4A4A,#4A4A4A,,0.1,0.1,#56b4e9,#56b4e9,,-0.2,0.1,#009e73,#009e73,,0.2,0.1,#cc79a7,#cc79a7,,0.2,0.2,#d55e00,#f0e442,,APMUZYFANYEZ3,001,2020-12-12_09h05.00.802,change-localization,2020.1.2,Win32,60,,,0,8,8,8,1,,
,,0.0016,0.1032,1,0,0,1.679,probe3,"[0,0.1]",,,,,,10,probe3,0.05,0.05,0.2,0.2,#f0e442,#f0e442,,0.1,-0.1,#e69f00,#e69f00,,0,0.1,#cc79a7,#4A4A4A,,-0.2,0.1,#56b4e9,#56b4e9,,0.2,0,#0072b2,#0072b2,,APMUZYFANYEZ3,001,2020-12-12_09h05.00.802,change-localization,2020.1.2,Win32,60,,,0,9,9,9,1,,
,,0.0928,-0.0872,1,0,0,4.655,probe3,"[0.1,-0.1]",,,,,,11,probe5,0.05,0.05,0.2,0.2,#4A4A4A,#4A4A4A,,0.1,0.2,#0072b2,#0072b2,,0.1,-0.1,#cc79a7,#cc79a7,,0,-0.2,#009e73,#009e73,,0.1,-0.2,#f0e442,#d55e00,,APMUZYFANYEZ3,001,2020-12-12_09h05.00.802,change-localization,2020.1.2,Win32,60,,,0,10,10,10,1,,
,,0.0944,0.0008,1,0,0,5.156,probe4,"[0.1,0]",,,,,,12,probe4,0.05,0.05,-0.1,-0.1,#009e73,#009e73,,-0.1,0,#56b4e9,#56b4e9,,-0.1,-0.2,#0072b2,#0072b2,,0.1,0,#d55e00,#f0e442,,0,-0.1,#cc79a7,#cc79a7,,APMUZYFANYEZ3,001,2020-12-12_09h05.00.802,change-localization,2020.1.2,Win32,60,,,0,11,11,11,1,,
,,-0.0144,-0.0808,1,0,0,4.875,probe1,"[0,-0.1]",,,,,,13,probe4,0.05,0.05,0,-0.1,#f0e442,#f0e442,,0.1,-0.1,#d55e00,#d55e00,,0.1,0.1,#0072b2,#0072b2,,-0.2,0.2,#cc79a7,#4A4A4A,,0.1,0.2,#009e73,#009e73,,APMUZYFANYEZ3,001,2020-12-12_09h05.00.802,change-localization,2020.1.2,Win32,60,,,0,12,12,12,1,,
,,-0.2048,0.004,1,0,0,1.482,probe3,"[-0.2,0]",,,,,,14,probe5,0.05,0.05,0,0.2,#cc79a7,#cc79a7,,0,-0.1,#4A4A4A,#4A4A4A,,-0.2,0,#56b4e9,#56b4e9,,0.1,0.1,#0072b2,#0072b2,,0.1,0.2,#009e73,#e69f00,,APMUZYFANYEZ3,001,2020-12-12_09h05.00.802,change-localization,2020.1.2,Win32,60,,,0,13,13,13,1,,
,,-0.0048,0.2072,1,0,0,7.666,probe2,"[0,0.2]",,,,,,15,probe3,0.05,0.05,0.2,0.2,#cc79a7,#cc79a7,,0,0.2,#56b4e9,#56b4e9,,0.2,0.1,#d55e00,#4A4A4A,,0.1,-0.1,#f0e442,#f0e442,,0.2,-0.1,#0072b2,#0072b2,,APMUZYFANYEZ3,001,2020-12-12_09h05.00.802,change-localization,2020.1.2,Win32,60,,,0,14,14,14,1,,
,,-0.0144,-0.0744,1,0,0,0.905999999,probe5,"[0,-0.1]",,,,,,16,probe3,0.05,0.05,-0.2,-0.1,#f0e442,#f0e442,,-0.2,0.2,#d55e00,#d55e00,,0.1,0.1,#009e73,#4A4A4A,,-0.2,0.1,#56b4e9,#56b4e9,,0,-0.1,#cc79a7,#cc79a7,,APMUZYFANYEZ3,001,2020-12-12_09h05.00.802,change-localization,2020.1.2,Win32,60,,,0,15,15,15,1,,
,,-0.2128,-0.0872,1,0,0,2.981000001,probe4,"[-0.2,-0.1]",,,,,,17,probe3,0.05,0.05,0.2,-0.1,#cc79a7,#cc79a7,,0,-0.2,#0072b2,#0072b2,,0,0.1,#4A4A4A,#e69f00,,-0.2,-0.1,#f0e442,#f0e442,,-0.1,-0.1,#009e73,#009e73,,APMUZYFANYEZ3,001,2020-12-12_09h05.00.802,change-localization,2020.1.2,Win32,60,,,0,16,16,16,1,,
,,-0.1056,0.0904,1,0,0,0.906,probe1,"[-0.1,0.1]",,,,,,18,probe3,0.05,0.05,-0.1,0.1,#d55e00,#d55e00,,-0.1,0.2,#e69f00,#e69f00,,0.2,0,#009e73,#0072b2,,0.1,-0.1,#cc79a7,#cc79a7,,-0.2,0.2,#4A4A4A,#4A4A4A,,APMUZYFANYEZ3,001,2020-12-12_09h05.00.802,change-localization,2020.1.2,Win32,60,,,0,17,17,17,1,,
,,-0.104,0.0984,1,0,0,0.845,probe3,"[-0.1,0.1]",,,,,,19,probe3,0.05,0.05,-0.1,0.2,#0072b2,#0072b2,,0,-0.1,#4A4A4A,#4A4A4A,,-0.1,0.1,#e69f00,#009e73,,0.2,0.1,#d55e00,#d55e00,,-0.2,0.1,#cc79a7,#cc79a7,,APMUZYFANYEZ3,001,2020-12-12_09h05.00.802,change-localization,2020.1.2,Win32,60,,,0,18,18,18,1,,
,,-0.1152,0.0024,1,0,0,1.06,probe5,"[-0.1,0]",,,,,,20,probe4,0.05,0.05,0.2,0,#56b4e9,#56b4e9,,-0.1,0.2,#009e73,#009e73,,-0.2,-0.2,#e69f00,#e69f00,,0,-0.1,#f0e442,#cc79a7,,-0.1,0,#4A4A4A,#4A4A4A,,APMUZYFANYEZ3,001,2020-12-12_09h05.00.802,change-localization,2020.1.2,Win32,60,,,0,19,19,19,1,,
,,0.1872,0.1048,1,0,0,0.718,probe5,"[0.2,0.1]",,,,,,21,probe3,0.05,0.05,-0.1,0.1,#0072b2,#0072b2,,-0.1,0.2,#009e73,#009e73,,0.2,0,#56b4e9,#4A4A4A,,-0.2,0.2,#f0e442,#f0e442,,0.2,0.1,#d55e00,#d55e00,,APMUZYFANYEZ3,001,2020-12-12_09h05.00.802,change-localization,2020.1.2,Win32,60,,,0,20,20,20,1,,
,,0.0064,-0.1976,1,0,0,2.999,probe5,"[0,-0.2]",,,,,,22,probe4,0.05,0.05,0.2,-0.1,#d55e00,#d55e00,,0.2,0,#56b4e9,#56b4e9,,0.1,-0.2,#cc79a7,#cc79a7,,-0.2,-0.1,#4A4A4A,#009e73,,0,-0.2,#e69f00,#e69f00,,APMUZYFANYEZ3,001,2020-12-12_09h05.00.802,change-localization,2020.1.2,Win32,60,,,0,21,21,21,1,,
,,0.1072,0.1144,1,0,0,3.438,probe1,"[0.1,0.1]",,,,,,23,probe4,0.05,0.05,0.1,0.1,#56b4e9,#56b4e9,,-0.2,-0.1,#0072b2,#0072b2,,0.2,0,#d55e00,#d55e00,,-0.2,-0.2,#cc79a7,#009e73,,0.1,-0.2,#4A4A4A,#4A4A4A,,APMUZYFANYEZ3,001,2020-12-12_09h05.00.802,change-localization,2020.1.2,Win32,60,,,0,22,22,22,1,,
,,0.1184,0.1096,1,0,0,10.281,probe4,"[0.1,0.1]",,,,,,24,probe2,0.05,0.05,-0.1,-0.2,#4A4A4A,#4A4A4A,,0.2,0.2,#d55e00,#e69f00,,0.1,-0.1,#f0e442,#f0e442,,0.1,0.1,#56b4e9,#56b4e9,,-0.2,0.1,#cc79a7,#cc79a7,,APMUZYFANYEZ3,001,2020-12-12_09h05.00.802,change-localization,2020.1.2,Win32,60,,,0,23,23,23,1,,
,,-0.0752,-0.1,1,0,0,1.575,probe2,"[-0.1,-0.1]",,,,,,25,probe3,0.05,0.05,-0.2,-0.2,#f0e442,#f0e442,,-0.1,-0.1,#4A4A4A,#4A4A4A,,0.2,0,#d55e00,#cc79a7,,0,0.2,#0072b2,#0072b2,,-0.2,0.1,#009e73,#009e73,,APMUZYFANYEZ3,001,2020-12-12_09h05.00.802,change-localization,2020.1.2,Win32,60,,,0,24,24,24,1,,
,,-0.2112,-0.0856,1,0,0,0.782,probe4,"[-0.2,-0.1]",,,,,,26,probe3,0.05,0.05,0.1,-0.1,#e69f00,#e69f00,,-0.2,0,#56b4e9,#56b4e9,,-0.1,-0.2,#009e73,#d55e00,,-0.2,-0.1,#4A4A4A,#4A4A4A,,0.1,0,#cc79a7,#cc79a7,,APMUZYFANYEZ3,001,2020-12-12_09h05.00.802,change-localization,2020.1.2,Win32,60,,,0,25,25,25,1,,
,,-0.1792,-0.1112,1,0,0,3.875,probe5,"[-0.2,-0.1]",,,,,,27,probe5,0.05,0.05,-0.1,-0.2,#009e73,#009e73,,0.2,0,#cc79a7,#cc79a7,,-0.1,-0.1,#e69f00,#e69f00,,0.1,0.1,#d55e00,#d55e00,,-0.2,-0.1,#4A4A4A,#0072b2,,APMUZYFANYEZ3,001,2020-12-12_09h05.00.802,change-localization,2020.1.2,Win32,60,,,0,26,26,26,1,,
,,0.1136,0.1192,1,0,0,3.779,probe5,"[0.1,0.1]",,,,,,28,probe5,0.05,0.05,-0.1,0.2,#009e73,#009e73,,-0.2,0.1,#56b4e9,#56b4e9,,0,-0.2,#d55e00,#d55e00,,0.1,0,#0072b2,#0072b2,,0.1,0.1,#f0e442,#e69f00,,APMUZYFANYEZ3,001,2020-12-12_09h05.00.802,change-localization,2020.1.2,Win32,60,,,0,27,27,27,1,,
,,0.0816,-0.0984,1,0,0,5.657,probe1,"[0.1,-0.1]",,,,,,29,probe1,0.05,0.05,0.1,-0.1,#4A4A4A,#56b4e9,,-0.2,0.2,#e69f00,#e69f00,,-0.1,-0.1,#f0e442,#f0e442,,0.1,0.2,#0072b2,#0072b2,,-0.1,-0.2,#cc79a7,#cc79a7,,APMUZYFANYEZ3,001,2020-12-12_09h05.00.802,change-localization,2020.1.2,Win32,60,,,0,28,28,28,1,,
,,-0.1168,-0.2056,1,0,0,4.181,probe2,"[-0.1,-0.2]",,,,,,30,probe2,0.05,0.05,0.1,0.2,#f0e442,#f0e442,,-0.1,-0.2,#d55e00,#4A4A4A,,0,-0.2,#cc79a7,#cc79a7,,0.1,-0.2,#0072b2,#0072b2,,-0.2,0,#009e73,#009e73,,APMUZYFANYEZ3,001,2020-12-12_09h05.00.802,change-localization,2020.1.2,Win32,60,,,0,29,29,29,1,,
,,0.0944,0.1816,1,0,0,7.308999999,probe3,"[0.1,0.2]",,,,,,31,probe5,0.05,0.05,0,-0.2,#d55e00,#d55e00,,0.1,0,#e69f00,#e69f00,,0.1,0.2,#f0e442,#f0e442,,-0.2,-0.1,#cc79a7,#cc79a7,,-0.1,-0.1,#009e73,#4A4A4A,,APMUZYFANYEZ3,001,2020-12-12_09h05.00.802,change-localization,2020.1.2,Win32,60,,,0,30,30,30,1,,
,,-0.192,-0.1064,1,0,0,1.812000001,probe5,"[-0.2,-0.1]",,,,,,32,probe3,0.05,0.05,0.2,0.2,#56b4e9,#56b4e9,,-0.1,-0.1,#009e73,#009e73,,0.2,0.1,#cc79a7,#0072b2,,-0.2,0.1,#4A4A4A,#4A4A4A,,-0.2,-0.1,#f0e442,#f0e442,,APMUZYFANYEZ3,001,2020-12-12_09h05.00.802,change-localization,2020.1.2,Win32,60,,,0,31,31,31,1,,
,,-0.1376,-0.0968,1,0,0,1.75,probe1,"[-0.1,-0.1]",,,,,,33,probe3,0.05,0.05,-0.1,-0.1,#0072b2,#0072b2,,0.1,0.1,#cc79a7,#cc79a7,,-0.1,0.1,#f0e442,#009e73,,0,-0.2,#56b4e9,#56b4e9,,0.1,0.2,#e69f00,#e69f00,,APMUZYFANYEZ3,001,2020-12-12_09h05.00.802,change-localization,2020.1.2,Win32,60,,,0,32,32,32,1,,
,,-0.1968,0.0904,1,0,0,5.324,probe2,"[-0.2,0.1]",,,,,,34,probe5,0.05,0.05,0.2,0.1,#e69f00,#e69f00,,-0.2,0.1,#cc79a7,#cc79a7,,0.1,-0.2,#0072b2,#0072b2,,0.2,-0.2,#d55e00,#d55e00,,-0.2,0,#56b4e9,#009e73,,APMUZYFANYEZ3,001,2020-12-12_09h05.00.802,change-localization,2020.1.2,Win32,60,,,0,33,33,33,1,,
,,0.1056,-0.0888,1,0,0,3.387,probe3,"[0.1,-0.1]",,,,,,35,probe2,0.05,0.05,0.2,0,#56b4e9,#56b4e9,,0.2,-0.1,#e69f00,#009e73,,0.1,-0.1,#f0e442,#f0e442,,0,0.2,#d55e00,#d55e00,,0.1,0.2,#cc79a7,#cc79a7,,APMUZYFANYEZ3,001,2020-12-12_09h05.00.802,change-localization,2020.1.2,Win32,60,,,0,34,34,34,1,,
,,0.0144,0.092,1,0,0,1.207,probe1,"[0,0.1]",,,,,,36,probe3,0.05,0.05,0,0.1,#4A4A4A,#4A4A4A,,0.2,0.1,#009e73,#009e73,,-0.2,-0.1,#f0e442,#56b4e9,,-0.1,-0.1,#e69f00,#e69f00,,0.1,0,#0072b2,#0072b2,,APMUZYFANYEZ3,001,2020-12-12_09h05.00.802,change-localization,2020.1.2,Win32,60,,,0,35,35,35,1,,
,,-0.2032,-0.02,1,0,0,1.463,probe3,"[-0.2,0]",,,,,,37,probe5,0.05,0.05,-0.2,0.1,#e69f00,#e69f00,,0.1,0.1,#0072b2,#0072b2,,-0.2,0,#d55e00,#d55e00,,-0.1,0.2,#cc79a7,#cc79a7,,0.1,0,#009e73,#f0e442,,APMUZYFANYEZ3,001,2020-12-12_09h05.00.802,change-localization,2020.1.2,Win32,60,,,0,36,36,36,1,,
,,0.1072,-0.092,1,0,0,1.373,probe3,"[0.1,-0.1]",,,,,,38,probe4,0.05,0.05,0.2,-0.2,#4A4A4A,#4A4A4A,,0.2,0,#0072b2,#0072b2,,0.1,-0.1,#e69f00,#e69f00,,0.1,0,#d55e00,#cc79a7,,0,-0.1,#009e73,#009e73,,APMUZYFANYEZ3,001,2020-12-12_09h05.00.802,change-localization,2020.1.2,Win32,60,,,0,37,37,37,1,,
,,-0.184,0.1848,1,0,0,0.967,probe4,"[-0.2,0.2]",,,,,,39,probe4,0.05,0.05,0.1,-0.1,#e69f00,#e69f00,,-0.2,-0.1,#cc79a7,#cc79a7,,0.2,0.1,#d55e00,#d55e00,,-0.2,0.2,#56b4e9,#f0e442,,0,-0.1,#0072b2,#0072b2,,APMUZYFANYEZ3,001,2020-12-12_09h05.00.802,change-localization,2020.1.2,Win32,60,,,0,38,38,38,1,,
,,-0.1248,-0.0808,1,0,0,0.999,probe3,"[-0.1,-0.1]",,,,,,40,probe1,0.05,0.05,-0.2,0.1,#4A4A4A,#d55e00,,0.2,0.2,#009e73,#009e73,,-0.1,-0.1,#cc79a7,#cc79a7,,0.2,-0.2,#e69f00,#e69f00,,0.1,-0.1,#56b4e9,#56b4e9,,APMUZYFANYEZ3,001,2020-12-12_09h05.00.802,change-localization,2020.1.2,Win32,60,,,0,39,39,39,1,,
,,-0.08,0.0168,1,0,0,2.931000001,probe4,"[-0.1,0]",,,,,,41,probe4,0.05,0.05,0.2,0.1,#009e73,#009e73,,-0.2,-0.1,#0072b2,#0072b2,,-0.2,-0.2,#56b4e9,#56b4e9,,-0.1,0,#f0e442,#cc79a7,,0,-0.2,#d55e00,#d55e00,,APMUZYFANYEZ3,001,2020-12-12_09h05.00.802,change-localization,2020.1.2,Win32,60,,,0,40,40,40,1,,
,,-0.1024,0.1048,1,0,0,1.031,probe2,"[-0.1,0.1]",,,,,,42,probe4,0.05,0.05,-0.1,-0.2,#009e73,#009e73,,-0.1,0.1,#cc79a7,#cc79a7,,0.1,0.1,#56b4e9,#56b4e9,,0,-0.2,#e69f00,#d55e00,,-0.1,0,#0072b2,#0072b2,,APMUZYFANYEZ3,001,2020-12-12_09h05.00.802,change-localization,2020.1.2,Win32,60,,,0,41,41,41,1,,
,,-0.1456,0.0936,1,0,0,2.032000001,probe5,"[-0.2,0.1]",,,,,,43,probe1,0.05,0.05,0.2,-0.1,#e69f00,#009e73,,0.1,0,#cc79a7,#cc79a7,,-0.2,-0.2,#f0e442,#f0e442,,0.2,-0.2,#56b4e9,#56b4e9,,-0.2,0.1,#4A4A4A,#4A4A4A,,APMUZYFANYEZ3,001,2020-12-12_09h05.00.802,change-localization,2020.1.2,Win32,60,,,0,42,42,42,1,,
,,-0.1024,0.1976,1,0,0,2.001,probe1,"[-0.1,0.2]",,,,,,44,probe1,0.05,0.05,-0.1,0.2,#56b4e9,#e69f00,,0.2,0.1,#4A4A4A,#4A4A4A,,0.1,0,#cc79a7,#cc79a7,,0.1,0.2,#f0e442,#f0e442,,-0.1,-0.1,#d55e00,#d55e00,,APMUZYFANYEZ3,001,2020-12-12_09h05.00.802,change-localization,2020.1.2,Win32,60,,,0,43,43,43,1,,
,,-0.0976,0.1992,1,0,0,0.876,probe4,"[-0.1,0.2]",,,,,,45,probe3,0.05,0.05,-0.2,0.2,#0072b2,#0072b2,,-0.2,-0.1,#56b4e9,#56b4e9,,-0.1,0.1,#f0e442,#e69f00,,-0.1,0.2,#d55e00,#d55e00,,0,-0.2,#cc79a7,#cc79a7,,APMUZYFANYEZ3,001,2020-12-12_09h05.00.802,change-localization,2020.1.2,Win32,60,,,0,44,44,44,1,,
,,0.112,0.2072,1,0,0,1.432,probe2,"[0.1,0.2]",,,,,,46,probe5,0.05,0.05,0.2,0.1,#0072b2,#0072b2,,0.1,0.2,#f0e442,#f0e442,,0.2,-0.2,#009e73,#009e73,,0.2,0.2,#4A4A4A,#4A4A4A,,0.2,0,#cc79a7,#e69f00,,APMUZYFANYEZ3,001,2020-12-12_09h05.00.802,change-localization,2020.1.2,Win32,60,,,0,45,45,45,1,,
,,0.1936,0.1864,1,0,0,0.848,probe3,"[0.2,0.2]",,,,,,47,probe3,0.05,0.05,0,-0.1,#009e73,#009e73,,-0.2,0.2,#f0e442,#f0e442,,0.2,0.2,#56b4e9,#cc79a7,,-0.1,0.2,#4A4A4A,#4A4A4A,,-0.1,0.1,#e69f00,#e69f00,,APMUZYFANYEZ3,001,2020-12-12_09h05.00.802,change-localization,2020.1.2,Win32,60,,,0,46,46,46,1,,
,,-0.1008,0.0216,1,0,0,2.061,probe5,"[-0.1,0]",,,,,,48,probe4,0.05,0.05,0.2,-0.2,#cc79a7,#cc79a7,,-0.1,0.1,#009e73,#009e73,,0.1,-0.2,#f0e442,#f0e442,,-0.2,-0.1,#d55e00,#0072b2,,-0.1,0,#56b4e9,#56b4e9,,APMUZYFANYEZ3,001,2020-12-12_09h05.00.802,change-localization,2020.1.2,Win32,60,,,0,47,47,47,1,,
,,-0.0912,0.2136,1,0,0,1.622,probe3,"[-0.1,0.2]",,,,,,49,probe2,0.05,0.05,0,-0.2,#e69f00,#e69f00,,-0.2,0,#cc79a7,#0072b2,,-0.1,0.2,#f0e442,#f0e442,,0.1,0.2,#4A4A4A,#4A4A4A,,-0.1,-0.1,#56b4e9,#56b4e9,,APMUZYFANYEZ3,001,2020-12-12_09h05.00.802,change-localization,2020.1.2,Win32,60,,,0,48,48,48,1,,
,,0.0016,0.0856,1,0,0,1.217999999,probe5,"[0,0.1]",,,,,,50,probe4,0.05,0.05,0.2,0.1,#0072b2,#0072b2,,0.1,0.1,#cc79a7,#cc79a7,,0.1,-0.2,#56b4e9,#56b4e9,,-0.1,0,#009e73,#e69f00,,0,0.1,#d55e00,#d55e00,,APMUZYFANYEZ3,001,2020-12-12_09h05.00.802,change-localization,2020.1.2,Win32,60,,,0,49,49,49,1,,
,,,,,,,,,,,,,,,,,,,,,,,,,,,,,,,,,,,,,,,,,,,,APMUZYFANYEZ3,001,2020-12-12_09h05.00.802,change-localization,2020.1.2,Win32,60,,,,,,,,c,19.781
