key_resp.keys,key_resp.rt,mouse.x,mouse.y,mouse.leftButton,mouse.midButton,mouse.rightButton,mouse.time,mouse.clicked_name,mouse.clicked_pos,training.thisRepN,training.thisTrialN,training.thisN,training.thisIndex,training.ran,trial,answer,height,width,x1,y1,stim_color1,probe_color1,copy_color1,x2,y2,stim_color2,probe_color2,copy_color2,x3,y3,stim_color3,probe_color3,copy_color3,x4,y4,stim_color4,probe_color4,copy_color4,x5,y5,stim_color5,probe_color5,copy_color5,participant,session,date,expName,psychopyVersion,OS,frameRate,key_resp_2.keys,key_resp_2.rt,trials.thisRepN,trials.thisTrialN,trials.thisN,trials.thisIndex,trials.ran,completion_keys.keys,completion_keys.rt
c,20.98588,-0.091111111,-0.195555556,1,0,0,4.85262,probe3,"[-0.1,-0.2]",0,0,0,0,1,1,probe4,0.05,0.05,0.1,0.2,#0072b2,#0072b2,#0072b2,0.1,-0.1,#e69f00,#e69f00,#e69f00,-0.1,-0.2,#cc79a7,#cc79a7,#cc79a7,0.2,-0.1,#4A4A4A,#f0e442,#FFFFFF,0.2,0,#009e73,#009e73,#009e73,AR2OM9HL4VRDS,001,2020-12-12_10h53.04.130,change-localization,2020.1.2,Win32,60,,,,,,,,,
,,0.19,0.007777778,1,0,0,1.26263,probe1,"[0.2,0]",0,1,1,1,1,2,probe1,0.05,0.05,0.2,0,#d55e00,#009e73,#FFFFFF,0.2,-0.1,#e69f00,#e69f00,#e69f00,0.1,0,#4A4A4A,#4A4A4A,#4A4A4A,-0.1,0.1,#56b4e9,#56b4e9,#56b4e9,-0.1,0,#cc79a7,#cc79a7,#cc79a7,AR2OM9HL4VRDS,001,2020-12-12_10h53.04.130,change-localization,2020.1.2,Win32,60,,,,,,,,,
,,-0.196666667,0.001111111,1,0,0,1.362345,probe3,"[-0.2,0]",0,2,2,2,1,3,probe1,0.05,0.05,-0.2,-0.2,#f0e442,#009e73,#FFFFFF,0.2,-0.1,#d55e00,#d55e00,#d55e00,-0.2,0,#4A4A4A,#4A4A4A,#4A4A4A,-0.1,-0.1,#0072b2,#0072b2,#0072b2,0,-0.1,#56b4e9,#56b4e9,#56b4e9,AR2OM9HL4VRDS,001,2020-12-12_10h53.04.130,change-localization,2020.1.2,Win32,60,,,,,,,,,
,,0.217777778,0.205555556,1,0,0,1.51187,probe1,"[0.2,0.2]",0,3,3,3,1,4,probe1,0.05,0.05,0.2,0.2,#d55e00,#56b4e9,#FFFFFF,-0.2,0.2,#f0e442,#f0e442,#f0e442,0.2,-0.2,#0072b2,#0072b2,#0072b2,-0.2,0,#cc79a7,#cc79a7,#cc79a7,-0.2,0.1,#4A4A4A,#4A4A4A,#4A4A4A,AR2OM9HL4VRDS,001,2020-12-12_10h53.04.130,change-localization,2020.1.2,Win32,60,,,,,,,,,
,,-0.088888889,-0.093333333,1,0,0,2.11001,probe4,"[-0.1,-0.1]",0,4,4,4,1,5,probe3,0.05,0.05,-0.2,0.1,#56b4e9,#56b4e9,#56b4e9,0,0.2,#009e73,#009e73,#009e73,0,0.1,#0072b2,#cc79a7,#FFFFFF,-0.1,-0.1,#4A4A4A,#4A4A4A,#4A4A4A,0.2,0,#f0e442,#f0e442,#f0e442,AR2OM9HL4VRDS,001,2020-12-12_10h53.04.130,change-localization,2020.1.2,Win32,60,,,,,,,,,
,,0.101111111,0.01,1,0,0,1.04707,probe5,"[0.1,0]",0,5,5,5,1,6,probe5,0.05,0.05,-0.1,0.1,#f0e442,#f0e442,#f0e442,0,0.1,#009e73,#009e73,#009e73,-0.2,0,#4A4A4A,#4A4A4A,#4A4A4A,0,-0.2,#d55e00,#d55e00,#d55e00,0.1,0,#cc79a7,#0072b2,#FFFFFF,AR2OM9HL4VRDS,001,2020-12-12_10h53.04.130,change-localization,2020.1.2,Win32,60,,,,,,,,,
,,0.107777778,0.178888889,1,0,0,3.60504,probe2,"[0.1,0.2]",0,6,6,6,1,7,probe2,0.05,0.05,-0.2,-0.2,#4A4A4A,#4A4A4A,#4A4A4A,0.1,0.2,#0072b2,#d55e00,#FFFFFF,-0.1,-0.2,#f0e442,#f0e442,#f0e442,-0.2,0.2,#009e73,#009e73,#009e73,0.2,0.2,#e69f00,#e69f00,#e69f00,AR2OM9HL4VRDS,001,2020-12-12_10h53.04.130,change-localization,2020.1.2,Win32,60,,,,,,,,,
,,-0.094444444,0.101111111,1,0,0,1.345605,probe3,"[-0.1,0.1]",0,7,7,7,1,8,probe1,0.05,0.05,0.1,-0.2,#009e73,#f0e442,#FFFFFF,-0.1,0,#d55e00,#d55e00,#d55e00,-0.1,0.1,#4A4A4A,#4A4A4A,#4A4A4A,-0.2,0,#cc79a7,#cc79a7,#cc79a7,0.2,0,#e69f00,#e69f00,#e69f00,AR2OM9HL4VRDS,001,2020-12-12_10h53.04.130,change-localization,2020.1.2,Win32,60,,,,,,,,,
,,0.082222222,-0.218888889,1,0,0,1.378885,probe1,"[0.1,-0.2]",0,8,8,8,1,9,probe1,0.05,0.05,0.1,-0.2,#0072b2,#e69f00,#FFFFFF,-0.1,0.2,#f0e442,#f0e442,#f0e442,-0.2,0.1,#d55e00,#d55e00,#d55e00,0.2,0.2,#cc79a7,#cc79a7,#cc79a7,0.1,0.1,#56b4e9,#56b4e9,#56b4e9,AR2OM9HL4VRDS,001,2020-12-12_10h53.04.130,change-localization,2020.1.2,Win32,60,,,,,,,,,
,,-0.108888889,-0.095555556,1,0,0,0.99652,probe1,"[-0.1,-0.1]",0,9,9,9,1,10,probe1,0.05,0.05,-0.1,-0.1,#4A4A4A,#f0e442,#FFFFFF,0,0.2,#cc79a7,#cc79a7,#cc79a7,0.2,-0.2,#e69f00,#e69f00,#e69f00,0.1,-0.2,#009e73,#009e73,#009e73,0.1,0.1,#d55e00,#d55e00,#d55e00,AR2OM9HL4VRDS,001,2020-12-12_10h53.04.130,change-localization,2020.1.2,Win32,60,,,,,,,,,
,,-0.088888889,0.191111111,1,0,0,1.478635,probe2,"[-0.1,0.2]",,,,,,1,probe2,0.05,0.05,-0.2,0.2,#009e73,#009e73,,-0.1,0.2,#f0e442,#e69f00,,-0.1,0,#0072b2,#0072b2,,0,-0.2,#cc79a7,#cc79a7,,0,0.2,#d55e00,#d55e00,,AR2OM9HL4VRDS,001,2020-12-12_10h53.04.130,change-localization,2020.1.2,Win32,60,c,6.21825,0,0,0,0,1,,
,,-0.091111111,-0.107777778,1,0,0,1.26279,probe3,"[-0.1,-0.1]",,,,,,2,probe5,0.05,0.05,0,0.1,#009e73,#009e73,,0.2,0.1,#4A4A4A,#4A4A4A,,-0.1,-0.1,#cc79a7,#cc79a7,,0.1,0.1,#d55e00,#d55e00,,0,-0.1,#56b4e9,#e69f00,,AR2OM9HL4VRDS,001,2020-12-12_10h53.04.130,change-localization,2020.1.2,Win32,60,,,0,1,1,1,1,,
,,-0.105555556,0.095555556,1,0,0,1.29586,probe4,"[-0.1,0.1]",,,,,,3,probe4,0.05,0.05,0.1,-0.1,#56b4e9,#56b4e9,,0.2,0,#f0e442,#f0e442,,0.2,-0.1,#e69f00,#e69f00,,-0.1,0.1,#4A4A4A,#009e73,,-0.1,0.2,#d55e00,#d55e00,,AR2OM9HL4VRDS,001,2020-12-12_10h53.04.130,change-localization,2020.1.2,Win32,60,,,0,2,2,2,1,,
,,-0.192222222,0.002222222,1,0,0,1.19642,probe5,"[-0.2,0]",,,,,,4,probe5,0.05,0.05,0.2,0,#56b4e9,#56b4e9,,-0.2,-0.2,#cc79a7,#cc79a7,,0,0.2,#4A4A4A,#4A4A4A,,0.2,-0.2,#e69f00,#e69f00,,-0.2,0,#f0e442,#009e73,,AR2OM9HL4VRDS,001,2020-12-12_10h53.04.130,change-localization,2020.1.2,Win32,60,,,0,3,3,3,1,,
,,-0.1,-0.096666667,1,0,0,1.01373,probe3,"[-0.1,-0.1]",,,,,,5,probe3,0.05,0.05,-0.2,0.1,#4A4A4A,#4A4A4A,,0.2,0.2,#009e73,#009e73,,-0.1,-0.1,#0072b2,#f0e442,,0.2,0,#cc79a7,#cc79a7,,0.1,0.1,#e69f00,#e69f00,,AR2OM9HL4VRDS,001,2020-12-12_10h53.04.130,change-localization,2020.1.2,Win32,60,,,0,4,4,4,1,,
,,-0.003333333,0.213333333,1,0,0,1.263005,probe4,"[0,0.2]",,,,,,6,probe4,0.05,0.05,-0.1,0.1,#d55e00,#d55e00,,-0.2,0.2,#0072b2,#0072b2,,0,-0.1,#e69f00,#e69f00,,0,0.2,#56b4e9,#4A4A4A,,-0.2,-0.2,#009e73,#009e73,,AR2OM9HL4VRDS,001,2020-12-12_10h53.04.130,change-localization,2020.1.2,Win32,60,,,0,5,5,5,1,,
,,0.227777778,0.205555556,1,0,0,1.49523,probe4,"[0.2,0.2]",,,,,,7,probe4,0.05,0.05,0.2,-0.1,#56b4e9,#56b4e9,,-0.1,-0.1,#e69f00,#e69f00,,-0.2,0.2,#009e73,#009e73,,0.2,0.2,#cc79a7,#4A4A4A,,0.2,-0.2,#d55e00,#d55e00,,AR2OM9HL4VRDS,001,2020-12-12_10h53.04.130,change-localization,2020.1.2,Win32,60,,,0,6,6,6,1,,
,,-0.19,0.194444444,1,0,0,2.010175,probe4,"[-0.2,0.2]",,,,,,8,probe4,0.05,0.05,-0.2,0.1,#e69f00,#e69f00,,0.1,0.2,#cc79a7,#cc79a7,,0.2,0.1,#4A4A4A,#4A4A4A,,-0.2,0.2,#56b4e9,#d55e00,,0.2,-0.1,#0072b2,#0072b2,,AR2OM9HL4VRDS,001,2020-12-12_10h53.04.130,change-localization,2020.1.2,Win32,60,,,0,7,7,7,1,,
,,0.197777778,0.195555556,1,0,0,1.21286,probe5,"[0.2,0.2]",,,,,,9,probe5,0.05,0.05,-0.1,0,#4A4A4A,#4A4A4A,,0.1,0.1,#56b4e9,#56b4e9,,-0.2,0.1,#009e73,#009e73,,0.2,0.1,#cc79a7,#cc79a7,,0.2,0.2,#d55e00,#f0e442,,AR2OM9HL4VRDS,001,2020-12-12_10h53.04.130,change-localization,2020.1.2,Win32,60,,,0,8,8,8,1,,
,,0.007777778,0.115555556,1,0,0,1.196225,probe3,"[0,0.1]",,,,,,10,probe3,0.05,0.05,0.2,0.2,#f0e442,#f0e442,,0.1,-0.1,#e69f00,#e69f00,,0,0.1,#cc79a7,#4A4A4A,,-0.2,0.1,#56b4e9,#56b4e9,,0.2,0,#0072b2,#0072b2,,AR2OM9HL4VRDS,001,2020-12-12_10h53.04.130,change-localization,2020.1.2,Win32,60,,,0,9,9,9,1,,
,,0.086666667,0.178888889,1,0,0,1.628455,probe2,"[0.1,0.2]",,,,,,11,probe5,0.05,0.05,0.2,0.2,#4A4A4A,#4A4A4A,,0.1,0.2,#0072b2,#0072b2,,0.1,-0.1,#cc79a7,#cc79a7,,0,-0.2,#009e73,#009e73,,0.1,-0.2,#f0e442,#d55e00,,AR2OM9HL4VRDS,001,2020-12-12_10h53.04.130,change-localization,2020.1.2,Win32,60,,,0,10,10,10,1,,
,,-0.102222222,0.01,1,0,0,1.16294,probe2,"[-0.1,0]",,,,,,12,probe4,0.05,0.05,-0.1,-0.1,#009e73,#009e73,,-0.1,0,#56b4e9,#56b4e9,,-0.1,-0.2,#0072b2,#0072b2,,0.1,0,#d55e00,#f0e442,,0,-0.1,#cc79a7,#cc79a7,,AR2OM9HL4VRDS,001,2020-12-12_10h53.04.130,change-localization,2020.1.2,Win32,60,,,0,11,11,11,1,,
,,0.007777778,-0.112222222,1,0,0,1.77756,probe1,"[0,-0.1]",,,,,,13,probe4,0.05,0.05,0,-0.1,#f0e442,#f0e442,,0.1,-0.1,#d55e00,#d55e00,,0.1,0.1,#0072b2,#0072b2,,-0.2,0.2,#cc79a7,#4A4A4A,,0.1,0.2,#009e73,#009e73,,AR2OM9HL4VRDS,001,2020-12-12_10h53.04.130,change-localization,2020.1.2,Win32,60,,,0,12,12,12,1,,
,,0.112222222,0.162222222,1,0,0,1.466535,probe5,"[0.1,0.2]",,,,,,14,probe5,0.05,0.05,0,0.2,#cc79a7,#cc79a7,,0,-0.1,#4A4A4A,#4A4A4A,,-0.2,0,#56b4e9,#56b4e9,,0.1,0.1,#0072b2,#0072b2,,0.1,0.2,#009e73,#e69f00,,AR2OM9HL4VRDS,001,2020-12-12_10h53.04.130,change-localization,2020.1.2,Win32,60,,,0,13,13,13,1,,
,,0.195555556,0.192222222,1,0,0,5.088075,probe1,"[0.2,0.2]",,,,,,15,probe3,0.05,0.05,0.2,0.2,#cc79a7,#cc79a7,,0,0.2,#56b4e9,#56b4e9,,0.2,0.1,#d55e00,#4A4A4A,,0.1,-0.1,#f0e442,#f0e442,,0.2,-0.1,#0072b2,#0072b2,,AR2OM9HL4VRDS,001,2020-12-12_10h53.04.130,change-localization,2020.1.2,Win32,60,,,0,14,14,14,1,,
,,0.097777778,0.092222222,1,0,0,0.91772,probe3,"[0.1,0.1]",,,,,,16,probe3,0.05,0.05,-0.2,-0.1,#f0e442,#f0e442,,-0.2,0.2,#d55e00,#d55e00,,0.1,0.1,#009e73,#4A4A4A,,-0.2,0.1,#56b4e9,#56b4e9,,0,-0.1,#cc79a7,#cc79a7,,AR2OM9HL4VRDS,001,2020-12-12_10h53.04.130,change-localization,2020.1.2,Win32,60,,,0,15,15,15,1,,
,,0.008888889,0.092222222,1,0,0,1.08329,probe3,"[0,0.1]",,,,,,17,probe3,0.05,0.05,0.2,-0.1,#cc79a7,#cc79a7,,0,-0.2,#0072b2,#0072b2,,0,0.1,#4A4A4A,#e69f00,,-0.2,-0.1,#f0e442,#f0e442,,-0.1,-0.1,#009e73,#009e73,,AR2OM9HL4VRDS,001,2020-12-12_10h53.04.130,change-localization,2020.1.2,Win32,60,,,0,16,16,16,1,,
,,-0.09,0.085555556,1,0,0,3.491885,probe1,"[-0.1,0.1]",,,,,,18,probe3,0.05,0.05,-0.1,0.1,#d55e00,#d55e00,,-0.1,0.2,#e69f00,#e69f00,,0.2,0,#009e73,#0072b2,,0.1,-0.1,#cc79a7,#cc79a7,,-0.2,0.2,#4A4A4A,#4A4A4A,,AR2OM9HL4VRDS,001,2020-12-12_10h53.04.130,change-localization,2020.1.2,Win32,60,,,0,17,17,17,1,,
,,-0.09,0.085555556,1,0,0,0.665335,probe3,"[-0.1,0.1]",,,,,,19,probe3,0.05,0.05,-0.1,0.2,#0072b2,#0072b2,,0,-0.1,#4A4A4A,#4A4A4A,,-0.1,0.1,#e69f00,#009e73,,0.2,0.1,#d55e00,#d55e00,,-0.2,0.1,#cc79a7,#cc79a7,,AR2OM9HL4VRDS,001,2020-12-12_10h53.04.130,change-localization,2020.1.2,Win32,60,,,0,18,18,18,1,,
,,-0.101111111,-0.008888889,1,0,0,3.422075,probe5,"[-0.1,0]",,,,,,20,probe4,0.05,0.05,0.2,0,#56b4e9,#56b4e9,,-0.1,0.2,#009e73,#009e73,,-0.2,-0.2,#e69f00,#e69f00,,0,-0.1,#f0e442,#cc79a7,,-0.1,0,#4A4A4A,#4A4A4A,,AR2OM9HL4VRDS,001,2020-12-12_10h53.04.130,change-localization,2020.1.2,Win32,60,,,0,19,19,19,1,,
,,0.2,0.004444444,1,0,0,1.266845,probe3,"[0.2,0]",,,,,,21,probe3,0.05,0.05,-0.1,0.1,#0072b2,#0072b2,,-0.1,0.2,#009e73,#009e73,,0.2,0,#56b4e9,#4A4A4A,,-0.2,0.2,#f0e442,#f0e442,,0.2,0.1,#d55e00,#d55e00,,AR2OM9HL4VRDS,001,2020-12-12_10h53.04.130,change-localization,2020.1.2,Win32,60,,,0,20,20,20,1,,
,,-0.194444444,-0.078888889,1,0,0,1.29592,probe4,"[-0.2,-0.1]",,,,,,22,probe4,0.05,0.05,0.2,-0.1,#d55e00,#d55e00,,0.2,0,#56b4e9,#56b4e9,,0.1,-0.2,#cc79a7,#cc79a7,,-0.2,-0.1,#4A4A4A,#009e73,,0,-0.2,#e69f00,#e69f00,,AR2OM9HL4VRDS,001,2020-12-12_10h53.04.130,change-localization,2020.1.2,Win32,60,,,0,21,21,21,1,,
,,-0.195555556,-0.088888889,1,0,0,4.201445,probe2,"[-0.2,-0.1]",,,,,,23,probe4,0.05,0.05,0.1,0.1,#56b4e9,#56b4e9,,-0.2,-0.1,#0072b2,#0072b2,,0.2,0,#d55e00,#d55e00,,-0.2,-0.2,#cc79a7,#009e73,,0.1,-0.2,#4A4A4A,#4A4A4A,,AR2OM9HL4VRDS,001,2020-12-12_10h53.04.130,change-localization,2020.1.2,Win32,60,,,0,22,22,22,1,,
,,0.177777778,0.203333333,1,0,0,2.62566,probe2,"[0.2,0.2]",,,,,,24,probe2,0.05,0.05,-0.1,-0.2,#4A4A4A,#4A4A4A,,0.2,0.2,#d55e00,#e69f00,,0.1,-0.1,#f0e442,#f0e442,,0.1,0.1,#56b4e9,#56b4e9,,-0.2,0.1,#cc79a7,#cc79a7,,AR2OM9HL4VRDS,001,2020-12-12_10h53.04.130,change-localization,2020.1.2,Win32,60,,,0,23,23,23,1,,
,,0.177777778,-0.016666667,1,0,0,2.940555,probe3,"[0.2,0]",,,,,,25,probe3,0.05,0.05,-0.2,-0.2,#f0e442,#f0e442,,-0.1,-0.1,#4A4A4A,#4A4A4A,,0.2,0,#d55e00,#cc79a7,,0,0.2,#0072b2,#0072b2,,-0.2,0.1,#009e73,#009e73,,AR2OM9HL4VRDS,001,2020-12-12_10h53.04.130,change-localization,2020.1.2,Win32,60,,,0,24,24,24,1,,
,,-0.092222222,-0.204444444,1,0,0,1.14627,probe3,"[-0.1,-0.2]",,,,,,26,probe3,0.05,0.05,0.1,-0.1,#e69f00,#e69f00,,-0.2,0,#56b4e9,#56b4e9,,-0.1,-0.2,#009e73,#d55e00,,-0.2,-0.1,#4A4A4A,#4A4A4A,,0.1,0,#cc79a7,#cc79a7,,AR2OM9HL4VRDS,001,2020-12-12_10h53.04.130,change-localization,2020.1.2,Win32,60,,,0,25,25,25,1,,
,,-0.198888889,-0.114444444,1,0,0,1.063105,probe5,"[-0.2,-0.1]",,,,,,27,probe5,0.05,0.05,-0.1,-0.2,#009e73,#009e73,,0.2,0,#cc79a7,#cc79a7,,-0.1,-0.1,#e69f00,#e69f00,,0.1,0.1,#d55e00,#d55e00,,-0.2,-0.1,#4A4A4A,#0072b2,,AR2OM9HL4VRDS,001,2020-12-12_10h53.04.130,change-localization,2020.1.2,Win32,60,,,0,26,26,26,1,,
,,-0.01,-0.216666667,1,0,0,2.69089,probe3,"[0,-0.2]",,,,,,28,probe5,0.05,0.05,-0.1,0.2,#009e73,#009e73,,-0.2,0.1,#56b4e9,#56b4e9,,0,-0.2,#d55e00,#d55e00,,0.1,0,#0072b2,#0072b2,,0.1,0.1,#f0e442,#e69f00,,AR2OM9HL4VRDS,001,2020-12-12_10h53.04.130,change-localization,2020.1.2,Win32,60,,,0,27,27,27,1,,
,,0.101111111,-0.111111111,1,0,0,1.345775,probe1,"[0.1,-0.1]",,,,,,29,probe1,0.05,0.05,0.1,-0.1,#4A4A4A,#56b4e9,,-0.2,0.2,#e69f00,#e69f00,,-0.1,-0.1,#f0e442,#f0e442,,0.1,0.2,#0072b2,#0072b2,,-0.1,-0.2,#cc79a7,#cc79a7,,AR2OM9HL4VRDS,001,2020-12-12_10h53.04.130,change-localization,2020.1.2,Win32,60,,,0,28,28,28,1,,
,,-0.11,-0.198888889,1,0,0,1.046715,probe2,"[-0.1,-0.2]",,,,,,30,probe2,0.05,0.05,0.1,0.2,#f0e442,#f0e442,,-0.1,-0.2,#d55e00,#4A4A4A,,0,-0.2,#cc79a7,#cc79a7,,0.1,-0.2,#0072b2,#0072b2,,-0.2,0,#009e73,#009e73,,AR2OM9HL4VRDS,001,2020-12-12_10h53.04.130,change-localization,2020.1.2,Win32,60,,,0,29,29,29,1,,
,,-0.097777778,-0.12,1,0,0,2.176315,probe5,"[-0.1,-0.1]",,,,,,31,probe5,0.05,0.05,0,-0.2,#d55e00,#d55e00,,0.1,0,#e69f00,#e69f00,,0.1,0.2,#f0e442,#f0e442,,-0.2,-0.1,#cc79a7,#cc79a7,,-0.1,-0.1,#009e73,#4A4A4A,,AR2OM9HL4VRDS,001,2020-12-12_10h53.04.130,change-localization,2020.1.2,Win32,60,,,0,30,30,30,1,,
,,0.211111111,0.2,1,0,0,2.39232,probe1,"[0.2,0.2]",,,,,,32,probe3,0.05,0.05,0.2,0.2,#56b4e9,#56b4e9,,-0.1,-0.1,#009e73,#009e73,,0.2,0.1,#cc79a7,#0072b2,,-0.2,0.1,#4A4A4A,#4A4A4A,,-0.2,-0.1,#f0e442,#f0e442,,AR2OM9HL4VRDS,001,2020-12-12_10h53.04.130,change-localization,2020.1.2,Win32,60,,,0,31,31,31,1,,
,,0.115555556,0.093333333,1,0,0,2.609015,probe2,"[0.1,0.1]",,,,,,33,probe3,0.05,0.05,-0.1,-0.1,#0072b2,#0072b2,,0.1,0.1,#cc79a7,#cc79a7,,-0.1,0.1,#f0e442,#009e73,,0,-0.2,#56b4e9,#56b4e9,,0.1,0.2,#e69f00,#e69f00,,AR2OM9HL4VRDS,001,2020-12-12_10h53.04.130,change-localization,2020.1.2,Win32,60,,,0,32,32,32,1,,
,,-0.221111111,0.007777778,1,0,0,1.11298,probe5,"[-0.2,0]",,,,,,34,probe5,0.05,0.05,0.2,0.1,#e69f00,#e69f00,,-0.2,0.1,#cc79a7,#cc79a7,,0.1,-0.2,#0072b2,#0072b2,,0.2,-0.2,#d55e00,#d55e00,,-0.2,0,#56b4e9,#009e73,,AR2OM9HL4VRDS,001,2020-12-12_10h53.04.130,change-localization,2020.1.2,Win32,60,,,0,33,33,33,1,,
,,0.188888889,-0.1,1,0,0,1.246175,probe2,"[0.2,-0.1]",,,,,,35,probe2,0.05,0.05,0.2,0,#56b4e9,#56b4e9,,0.2,-0.1,#e69f00,#009e73,,0.1,-0.1,#f0e442,#f0e442,,0,0.2,#d55e00,#d55e00,,0.1,0.2,#cc79a7,#cc79a7,,AR2OM9HL4VRDS,001,2020-12-12_10h53.04.130,change-localization,2020.1.2,Win32,60,,,0,34,34,34,1,,
,,0.111111111,-0.013333333,1,0,0,2.77425,probe5,"[0.1,0]",,,,,,36,probe3,0.05,0.05,0,0.1,#4A4A4A,#4A4A4A,,0.2,0.1,#009e73,#009e73,,-0.2,-0.1,#f0e442,#56b4e9,,-0.1,-0.1,#e69f00,#e69f00,,0.1,0,#0072b2,#0072b2,,AR2OM9HL4VRDS,001,2020-12-12_10h53.04.130,change-localization,2020.1.2,Win32,60,,,0,35,35,35,1,,
,,-0.095555556,0.181111111,1,0,0,1.694595,probe4,"[-0.1,0.2]",,,,,,37,probe5,0.05,0.05,-0.2,0.1,#e69f00,#e69f00,,0.1,0.1,#0072b2,#0072b2,,-0.2,0,#d55e00,#d55e00,,-0.1,0.2,#cc79a7,#cc79a7,,0.1,0,#009e73,#f0e442,,AR2OM9HL4VRDS,001,2020-12-12_10h53.04.130,change-localization,2020.1.2,Win32,60,,,0,36,36,36,1,,
,,0.112222222,-0.003333333,1,0,0,1.212925,probe4,"[0.1,0]",,,,,,38,probe4,0.05,0.05,0.2,-0.2,#4A4A4A,#4A4A4A,,0.2,0,#0072b2,#0072b2,,0.1,-0.1,#e69f00,#e69f00,,0.1,0,#d55e00,#cc79a7,,0,-0.1,#009e73,#009e73,,AR2OM9HL4VRDS,001,2020-12-12_10h53.04.130,change-localization,2020.1.2,Win32,60,,,0,37,37,37,1,,
,,-0.213333333,0.192222222,1,0,0,1.395425,probe4,"[-0.2,0.2]",,,,,,39,probe4,0.05,0.05,0.1,-0.1,#e69f00,#e69f00,,-0.2,-0.1,#cc79a7,#cc79a7,,0.2,0.1,#d55e00,#d55e00,,-0.2,0.2,#56b4e9,#f0e442,,0,-0.1,#0072b2,#0072b2,,AR2OM9HL4VRDS,001,2020-12-12_10h53.04.130,change-localization,2020.1.2,Win32,60,,,0,38,38,38,1,,
,,-0.208888889,0.101111111,1,0,0,1.113445,probe1,"[-0.2,0.1]",,,,,,40,probe1,0.05,0.05,-0.2,0.1,#4A4A4A,#d55e00,,0.2,0.2,#009e73,#009e73,,-0.1,-0.1,#cc79a7,#cc79a7,,0.2,-0.2,#e69f00,#e69f00,,0.1,-0.1,#56b4e9,#56b4e9,,AR2OM9HL4VRDS,001,2020-12-12_10h53.04.130,change-localization,2020.1.2,Win32,60,,,0,39,39,39,1,,
,,-0.111111111,0,1,0,0,1.229015,probe4,"[-0.1,0]",,,,,,41,probe4,0.05,0.05,0.2,0.1,#009e73,#009e73,,-0.2,-0.1,#0072b2,#0072b2,,-0.2,-0.2,#56b4e9,#56b4e9,,-0.1,0,#f0e442,#cc79a7,,0,-0.2,#d55e00,#d55e00,,AR2OM9HL4VRDS,001,2020-12-12_10h53.04.130,change-localization,2020.1.2,Win32,60,,,0,40,40,40,1,,
,,-0.1,-0.224444444,1,0,0,3.156565,probe1,"[-0.1,-0.2]",,,,,,42,probe4,0.05,0.05,-0.1,-0.2,#009e73,#009e73,,-0.1,0.1,#cc79a7,#cc79a7,,0.1,0.1,#56b4e9,#56b4e9,,0,-0.2,#e69f00,#d55e00,,-0.1,0,#0072b2,#0072b2,,AR2OM9HL4VRDS,001,2020-12-12_10h53.04.130,change-localization,2020.1.2,Win32,60,,,0,41,41,41,1,,
,,0.212222222,-0.098888889,1,0,0,1.34619,probe1,"[0.2,-0.1]",,,,,,43,probe1,0.05,0.05,0.2,-0.1,#e69f00,#009e73,,0.1,0,#cc79a7,#cc79a7,,-0.2,-0.2,#f0e442,#f0e442,,0.2,-0.2,#56b4e9,#56b4e9,,-0.2,0.1,#4A4A4A,#4A4A4A,,AR2OM9HL4VRDS,001,2020-12-12_10h53.04.130,change-localization,2020.1.2,Win32,60,,,0,42,42,42,1,,
,,-0.104444444,0.188888889,1,0,0,1.31245,probe1,"[-0.1,0.2]",,,,,,44,probe1,0.05,0.05,-0.1,0.2,#56b4e9,#e69f00,,0.2,0.1,#4A4A4A,#4A4A4A,,0.1,0,#cc79a7,#cc79a7,,0.1,0.2,#f0e442,#f0e442,,-0.1,-0.1,#d55e00,#d55e00,,AR2OM9HL4VRDS,001,2020-12-12_10h53.04.130,change-localization,2020.1.2,Win32,60,,,0,43,43,43,1,,
,,-0.195555556,0.21,1,0,0,2.111585,probe1,"[-0.2,0.2]",,,,,,45,probe3,0.05,0.05,-0.2,0.2,#0072b2,#0072b2,,-0.2,-0.1,#56b4e9,#56b4e9,,-0.1,0.1,#f0e442,#e69f00,,-0.1,0.2,#d55e00,#d55e00,,0,-0.2,#cc79a7,#cc79a7,,AR2OM9HL4VRDS,001,2020-12-12_10h53.04.130,change-localization,2020.1.2,Win32,60,,,0,44,44,44,1,,
,,0.193333333,-0.003333333,1,0,0,1.54518,probe5,"[0.2,0]",,,,,,46,probe5,0.05,0.05,0.2,0.1,#0072b2,#0072b2,,0.1,0.2,#f0e442,#f0e442,,0.2,-0.2,#009e73,#009e73,,0.2,0.2,#4A4A4A,#4A4A4A,,0.2,0,#cc79a7,#e69f00,,AR2OM9HL4VRDS,001,2020-12-12_10h53.04.130,change-localization,2020.1.2,Win32,60,,,0,45,45,45,1,,
,,0.176666667,0.205555556,1,0,0,1.08089,probe3,"[0.2,0.2]",,,,,,47,probe3,0.05,0.05,0,-0.1,#009e73,#009e73,,-0.2,0.2,#f0e442,#f0e442,,0.2,0.2,#56b4e9,#cc79a7,,-0.1,0.2,#4A4A4A,#4A4A4A,,-0.1,0.1,#e69f00,#e69f00,,AR2OM9HL4VRDS,001,2020-12-12_10h53.04.130,change-localization,2020.1.2,Win32,60,,,0,46,46,46,1,,
,,-0.186666667,-0.09,1,0,0,1.39527,probe4,"[-0.2,-0.1]",,,,,,48,probe4,0.05,0.05,0.2,-0.2,#cc79a7,#cc79a7,,-0.1,0.1,#009e73,#009e73,,0.1,-0.2,#f0e442,#f0e442,,-0.2,-0.1,#d55e00,#0072b2,,-0.1,0,#56b4e9,#56b4e9,,AR2OM9HL4VRDS,001,2020-12-12_10h53.04.130,change-localization,2020.1.2,Win32,60,,,0,47,47,47,1,,
,,-0.197777778,-0.001111111,1,0,0,0.9639,probe2,"[-0.2,0]",,,,,,49,probe2,0.05,0.05,0,-0.2,#e69f00,#e69f00,,-0.2,0,#cc79a7,#0072b2,,-0.1,0.2,#f0e442,#f0e442,,0.1,0.2,#4A4A4A,#4A4A4A,,-0.1,-0.1,#56b4e9,#56b4e9,,AR2OM9HL4VRDS,001,2020-12-12_10h53.04.130,change-localization,2020.1.2,Win32,60,,,0,48,48,48,1,,
,,-0.112222222,-0.012222222,1,0,0,0.98026,probe4,"[-0.1,0]",,,,,,50,probe4,0.05,0.05,0.2,0.1,#0072b2,#0072b2,,0.1,0.1,#cc79a7,#cc79a7,,0.1,-0.2,#56b4e9,#56b4e9,,-0.1,0,#009e73,#e69f00,,0,0.1,#d55e00,#d55e00,,AR2OM9HL4VRDS,001,2020-12-12_10h53.04.130,change-localization,2020.1.2,Win32,60,,,0,49,49,49,1,,
,,,,,,,,,,,,,,,,,,,,,,,,,,,,,,,,,,,,,,,,,,,,AR2OM9HL4VRDS,001,2020-12-12_10h53.04.130,change-localization,2020.1.2,Win32,60,,,,,,,,c,20.1165
