key_resp.keys,key_resp.rt,mouse.x,mouse.y,mouse.leftButton,mouse.midButton,mouse.rightButton,mouse.time,mouse.clicked_name,mouse.clicked_pos,training.thisRepN,training.thisTrialN,training.thisN,training.thisIndex,training.ran,trial,answer,height,width,x1,y1,stim_color1,probe_color1,copy_color1,x2,y2,stim_color2,probe_color2,copy_color2,x3,y3,stim_color3,probe_color3,copy_color3,x4,y4,stim_color4,probe_color4,copy_color4,x5,y5,stim_color5,probe_color5,copy_color5,participant,session,date,expName,psychopyVersion,OS,frameRate,key_resp_2.keys,key_resp_2.rt,trials.thisRepN,trials.thisTrialN,trials.thisN,trials.thisIndex,trials.ran,completion_keys.keys,completion_keys.rt
c,29.125595,0.087239583,-0.102864583,1,0,0,3.17464,probe2,"[0.1,-0.1]",0,0,0,0,1,1,probe4,0.05,0.05,0.1,0.2,#0072b2,#0072b2,#0072b2,0.1,-0.1,#e69f00,#e69f00,#e69f00,-0.1,-0.2,#cc79a7,#cc79a7,#cc79a7,0.2,-0.1,#4A4A4A,#f0e442,#FFFFFF,0.2,0,#009e73,#009e73,#009e73,ARRDHASPCGP4L,001,2020-12-11_20h57.35.538,change-localization,2020.1.2,Win32,60,,,,,,,,,
,,0.111979167,0.005208333,1,0,0,1.983425,probe3,"[0.1,0]",0,1,1,1,1,2,probe1,0.05,0.05,0.2,0,#d55e00,#009e73,#FFFFFF,0.2,-0.1,#e69f00,#e69f00,#e69f00,0.1,0,#4A4A4A,#4A4A4A,#4A4A4A,-0.1,0.1,#56b4e9,#56b4e9,#56b4e9,-0.1,0,#cc79a7,#cc79a7,#cc79a7,ARRDHASPCGP4L,001,2020-12-11_20h57.35.538,change-localization,2020.1.2,Win32,60,,,,,,,,,
,,0.00390625,-0.108072917,1,0,0,1.30363,probe5,"[0,-0.1]",0,2,2,2,1,3,probe1,0.05,0.05,-0.2,-0.2,#f0e442,#009e73,#FFFFFF,0.2,-0.1,#d55e00,#d55e00,#d55e00,-0.2,0,#4A4A4A,#4A4A4A,#4A4A4A,-0.1,-0.1,#0072b2,#0072b2,#0072b2,0,-0.1,#56b4e9,#56b4e9,#56b4e9,ARRDHASPCGP4L,001,2020-12-11_20h57.35.538,change-localization,2020.1.2,Win32,60,,,,,,,,,
,,-0.19140625,-0.0234375,1,0,0,1.9106,probe4,"[-0.2,0]",0,3,3,3,1,4,probe1,0.05,0.05,0.2,0.2,#d55e00,#56b4e9,#FFFFFF,-0.2,0.2,#f0e442,#f0e442,#f0e442,0.2,-0.2,#0072b2,#0072b2,#0072b2,-0.2,0,#cc79a7,#cc79a7,#cc79a7,-0.2,0.1,#4A4A4A,#4A4A4A,#4A4A4A,ARRDHASPCGP4L,001,2020-12-11_20h57.35.538,change-localization,2020.1.2,Win32,60,,,,,,,,,
,,0.014322917,0.178385417,1,0,0,1.39459,probe2,"[0,0.2]",0,4,4,4,1,5,probe3,0.05,0.05,-0.2,0.1,#56b4e9,#56b4e9,#56b4e9,0,0.2,#009e73,#009e73,#009e73,0,0.1,#0072b2,#cc79a7,#FFFFFF,-0.1,-0.1,#4A4A4A,#4A4A4A,#4A4A4A,0.2,0,#f0e442,#f0e442,#f0e442,ARRDHASPCGP4L,001,2020-12-11_20h57.35.538,change-localization,2020.1.2,Win32,60,,,,,,,,,
,,-0.212239583,-0.002604167,1,0,0,1.570455,probe3,"[-0.2,0]",0,5,5,5,1,6,probe5,0.05,0.05,-0.1,0.1,#f0e442,#f0e442,#f0e442,0,0.1,#009e73,#009e73,#009e73,-0.2,0,#4A4A4A,#4A4A4A,#4A4A4A,0,-0.2,#d55e00,#d55e00,#d55e00,0.1,0,#cc79a7,#0072b2,#FFFFFF,ARRDHASPCGP4L,001,2020-12-11_20h57.35.538,change-localization,2020.1.2,Win32,60,,,,,,,,,
,,0.092447917,0.213541667,1,0,0,1.151335,probe2,"[0.1,0.2]",0,6,6,6,1,7,probe2,0.05,0.05,-0.2,-0.2,#4A4A4A,#4A4A4A,#4A4A4A,0.1,0.2,#0072b2,#d55e00,#FFFFFF,-0.1,-0.2,#f0e442,#f0e442,#f0e442,-0.2,0.2,#009e73,#009e73,#009e73,0.2,0.2,#e69f00,#e69f00,#e69f00,ARRDHASPCGP4L,001,2020-12-11_20h57.35.538,change-localization,2020.1.2,Win32,60,,,,,,,,,
,,0.10546875,-0.205729167,1,0,0,1.399905,probe1,"[0.1,-0.2]",0,7,7,7,1,8,probe1,0.05,0.05,0.1,-0.2,#009e73,#f0e442,#FFFFFF,-0.1,0,#d55e00,#d55e00,#d55e00,-0.1,0.1,#4A4A4A,#4A4A4A,#4A4A4A,-0.2,0,#cc79a7,#cc79a7,#cc79a7,0.2,0,#e69f00,#e69f00,#e69f00,ARRDHASPCGP4L,001,2020-12-11_20h57.35.538,change-localization,2020.1.2,Win32,60,,,,,,,,,
,,0.12109375,0.114583333,1,0,0,1.18358,probe5,"[0.1,0.1]",0,8,8,8,1,9,probe1,0.05,0.05,0.1,-0.2,#0072b2,#e69f00,#FFFFFF,-0.1,0.2,#f0e442,#f0e442,#f0e442,-0.2,0.1,#d55e00,#d55e00,#d55e00,0.2,0.2,#cc79a7,#cc79a7,#cc79a7,0.1,0.1,#56b4e9,#56b4e9,#56b4e9,ARRDHASPCGP4L,001,2020-12-11_20h57.35.538,change-localization,2020.1.2,Win32,60,,,,,,,,,
,,-0.125,-0.10546875,1,0,0,1.127145,probe1,"[-0.1,-0.1]",0,9,9,9,1,10,probe1,0.05,0.05,-0.1,-0.1,#4A4A4A,#f0e442,#FFFFFF,0,0.2,#cc79a7,#cc79a7,#cc79a7,0.2,-0.2,#e69f00,#e69f00,#e69f00,0.1,-0.2,#009e73,#009e73,#009e73,0.1,0.1,#d55e00,#d55e00,#d55e00,ARRDHASPCGP4L,001,2020-12-11_20h57.35.538,change-localization,2020.1.2,Win32,60,,,,,,,,,
,,-0.102864583,0.196614583,1,0,0,1.378125,probe2,"[-0.1,0.2]",,,,,,1,probe2,0.05,0.05,-0.2,0.2,#009e73,#009e73,,-0.1,0.2,#f0e442,#e69f00,,-0.1,0,#0072b2,#0072b2,,0,-0.2,#cc79a7,#cc79a7,,0,0.2,#d55e00,#d55e00,,ARRDHASPCGP4L,001,2020-12-11_20h57.35.538,change-localization,2020.1.2,Win32,60,c,3.066395,0,0,0,0,1,,
,,-0.009114583,-0.109375,1,0,0,1.14458,probe5,"[0,-0.1]",,,,,,2,probe5,0.05,0.05,0,0.1,#009e73,#009e73,,0.2,0.1,#4A4A4A,#4A4A4A,,-0.1,-0.1,#cc79a7,#cc79a7,,0.1,0.1,#d55e00,#d55e00,,0,-0.1,#56b4e9,#e69f00,,ARRDHASPCGP4L,001,2020-12-11_20h57.35.538,change-localization,2020.1.2,Win32,60,,,0,1,1,1,1,,
,,0.08203125,-0.1015625,1,0,0,1.06709,probe1,"[0.1,-0.1]",,,,,,3,probe4,0.05,0.05,0.1,-0.1,#56b4e9,#56b4e9,,0.2,0,#f0e442,#f0e442,,0.2,-0.1,#e69f00,#e69f00,,-0.1,0.1,#4A4A4A,#009e73,,-0.1,0.2,#d55e00,#d55e00,,ARRDHASPCGP4L,001,2020-12-11_20h57.35.538,change-localization,2020.1.2,Win32,60,,,0,2,2,2,1,,
,,-0.20703125,-0.009114583,1,0,0,1.2327,probe5,"[-0.2,0]",,,,,,4,probe5,0.05,0.05,0.2,0,#56b4e9,#56b4e9,,-0.2,-0.2,#cc79a7,#cc79a7,,0,0.2,#4A4A4A,#4A4A4A,,0.2,-0.2,#e69f00,#e69f00,,-0.2,0,#f0e442,#009e73,,ARRDHASPCGP4L,001,2020-12-11_20h57.35.538,change-localization,2020.1.2,Win32,60,,,0,3,3,3,1,,
,,-0.080729167,-0.108072917,1,0,0,1.652715,probe3,"[-0.1,-0.1]",,,,,,5,probe3,0.05,0.05,-0.2,0.1,#4A4A4A,#4A4A4A,,0.2,0.2,#009e73,#009e73,,-0.1,-0.1,#0072b2,#f0e442,,0.2,0,#cc79a7,#cc79a7,,0.1,0.1,#e69f00,#e69f00,,ARRDHASPCGP4L,001,2020-12-11_20h57.35.538,change-localization,2020.1.2,Win32,60,,,0,4,4,4,1,,
,,0.006510417,0.196614583,1,0,0,1.21634,probe4,"[0,0.2]",,,,,,6,probe4,0.05,0.05,-0.1,0.1,#d55e00,#d55e00,,-0.2,0.2,#0072b2,#0072b2,,0,-0.1,#e69f00,#e69f00,,0,0.2,#56b4e9,#4A4A4A,,-0.2,-0.2,#009e73,#009e73,,ARRDHASPCGP4L,001,2020-12-11_20h57.35.538,change-localization,2020.1.2,Win32,60,,,0,5,5,5,1,,
,,0.204427083,0.204427083,1,0,0,1.09989,probe4,"[0.2,0.2]",,,,,,7,probe4,0.05,0.05,0.2,-0.1,#56b4e9,#56b4e9,,-0.1,-0.1,#e69f00,#e69f00,,-0.2,0.2,#009e73,#009e73,,0.2,0.2,#cc79a7,#4A4A4A,,0.2,-0.2,#d55e00,#d55e00,,ARRDHASPCGP4L,001,2020-12-11_20h57.35.538,change-localization,2020.1.2,Win32,60,,,0,6,6,6,1,,
,,0.106770833,0.200520833,1,0,0,1.05004,probe2,"[0.1,0.2]",,,,,,8,probe4,0.05,0.05,-0.2,0.1,#e69f00,#e69f00,,0.1,0.2,#cc79a7,#cc79a7,,0.2,0.1,#4A4A4A,#4A4A4A,,-0.2,0.2,#56b4e9,#d55e00,,0.2,-0.1,#0072b2,#0072b2,,ARRDHASPCGP4L,001,2020-12-11_20h57.35.538,change-localization,2020.1.2,Win32,60,,,0,7,7,7,1,,
,,0.209635417,0.192708333,1,0,0,0.891255,probe5,"[0.2,0.2]",,,,,,9,probe5,0.05,0.05,-0.1,0,#4A4A4A,#4A4A4A,,0.1,0.1,#56b4e9,#56b4e9,,-0.2,0.1,#009e73,#009e73,,0.2,0.1,#cc79a7,#cc79a7,,0.2,0.2,#d55e00,#f0e442,,ARRDHASPCGP4L,001,2020-12-11_20h57.35.538,change-localization,2020.1.2,Win32,60,,,0,8,8,8,1,,
,,-0.001302083,0.100260417,1,0,0,1.16657,probe3,"[0,0.1]",,,,,,10,probe3,0.05,0.05,0.2,0.2,#f0e442,#f0e442,,0.1,-0.1,#e69f00,#e69f00,,0,0.1,#cc79a7,#4A4A4A,,-0.2,0.1,#56b4e9,#56b4e9,,0.2,0,#0072b2,#0072b2,,ARRDHASPCGP4L,001,2020-12-11_20h57.35.538,change-localization,2020.1.2,Win32,60,,,0,9,9,9,1,,
,,0.1015625,-0.104166667,1,0,0,1.35011,probe3,"[0.1,-0.1]",,,,,,11,probe5,0.05,0.05,0.2,0.2,#4A4A4A,#4A4A4A,,0.1,0.2,#0072b2,#0072b2,,0.1,-0.1,#cc79a7,#cc79a7,,0,-0.2,#009e73,#009e73,,0.1,-0.2,#f0e442,#d55e00,,ARRDHASPCGP4L,001,2020-12-11_20h57.35.538,change-localization,2020.1.2,Win32,60,,,0,10,10,10,1,,
,,0.09375,0.015625,1,0,0,0.933145,probe4,"[0.1,0]",,,,,,12,probe4,0.05,0.05,-0.1,-0.1,#009e73,#009e73,,-0.1,0,#56b4e9,#56b4e9,,-0.1,-0.2,#0072b2,#0072b2,,0.1,0,#d55e00,#f0e442,,0,-0.1,#cc79a7,#cc79a7,,ARRDHASPCGP4L,001,2020-12-11_20h57.35.538,change-localization,2020.1.2,Win32,60,,,0,11,11,11,1,,
,,-0.19921875,0.205729167,1,0,0,1.099655,probe4,"[-0.2,0.2]",,,,,,13,probe4,0.05,0.05,0,-0.1,#f0e442,#f0e442,,0.1,-0.1,#d55e00,#d55e00,,0.1,0.1,#0072b2,#0072b2,,-0.2,0.2,#cc79a7,#4A4A4A,,0.1,0.2,#009e73,#009e73,,ARRDHASPCGP4L,001,2020-12-11_20h57.35.538,change-localization,2020.1.2,Win32,60,,,0,12,12,12,1,,
,,0.095052083,0.095052083,1,0,0,1.589755,probe4,"[0.1,0.1]",,,,,,14,probe5,0.05,0.05,0,0.2,#cc79a7,#cc79a7,,0,-0.1,#4A4A4A,#4A4A4A,,-0.2,0,#56b4e9,#56b4e9,,0.1,0.1,#0072b2,#0072b2,,0.1,0.2,#009e73,#e69f00,,ARRDHASPCGP4L,001,2020-12-11_20h57.35.538,change-localization,2020.1.2,Win32,60,,,0,13,13,13,1,,
,,0.19140625,0.083333333,1,0,0,1.449515,probe3,"[0.2,0.1]",,,,,,15,probe3,0.05,0.05,0.2,0.2,#cc79a7,#cc79a7,,0,0.2,#56b4e9,#56b4e9,,0.2,0.1,#d55e00,#4A4A4A,,0.1,-0.1,#f0e442,#f0e442,,0.2,-0.1,#0072b2,#0072b2,,ARRDHASPCGP4L,001,2020-12-11_20h57.35.538,change-localization,2020.1.2,Win32,60,,,0,14,14,14,1,,
,,0.106770833,0.098958333,1,0,0,0.95812,probe3,"[0.1,0.1]",,,,,,16,probe3,0.05,0.05,-0.2,-0.1,#f0e442,#f0e442,,-0.2,0.2,#d55e00,#d55e00,,0.1,0.1,#009e73,#4A4A4A,,-0.2,0.1,#56b4e9,#56b4e9,,0,-0.1,#cc79a7,#cc79a7,,ARRDHASPCGP4L,001,2020-12-11_20h57.35.538,change-localization,2020.1.2,Win32,60,,,0,15,15,15,1,,
,,0.00390625,0.098958333,1,0,0,0.99587,probe3,"[0,0.1]",,,,,,17,probe3,0.05,0.05,0.2,-0.1,#cc79a7,#cc79a7,,0,-0.2,#0072b2,#0072b2,,0,0.1,#4A4A4A,#e69f00,,-0.2,-0.1,#f0e442,#f0e442,,-0.1,-0.1,#009e73,#009e73,,ARRDHASPCGP4L,001,2020-12-11_20h57.35.538,change-localization,2020.1.2,Win32,60,,,0,16,16,16,1,,
,,0.114583333,-0.104166667,1,0,0,1.58244,probe4,"[0.1,-0.1]",,,,,,18,probe3,0.05,0.05,-0.1,0.1,#d55e00,#d55e00,,-0.1,0.2,#e69f00,#e69f00,,0.2,0,#009e73,#0072b2,,0.1,-0.1,#cc79a7,#cc79a7,,-0.2,0.2,#4A4A4A,#4A4A4A,,ARRDHASPCGP4L,001,2020-12-11_20h57.35.538,change-localization,2020.1.2,Win32,60,,,0,17,17,17,1,,
,,-0.0859375,0.08984375,1,0,0,1.478405,probe3,"[-0.1,0.1]",,,,,,19,probe3,0.05,0.05,-0.1,0.2,#0072b2,#0072b2,,0,-0.1,#4A4A4A,#4A4A4A,,-0.1,0.1,#e69f00,#009e73,,0.2,0.1,#d55e00,#d55e00,,-0.2,0.1,#cc79a7,#cc79a7,,ARRDHASPCGP4L,001,2020-12-11_20h57.35.538,change-localization,2020.1.2,Win32,60,,,0,18,18,18,1,,
,,-0.098958333,-0.001302083,1,0,0,1.39985,probe5,"[-0.1,0]",,,,,,20,probe4,0.05,0.05,0.2,0,#56b4e9,#56b4e9,,-0.1,0.2,#009e73,#009e73,,-0.2,-0.2,#e69f00,#e69f00,,0,-0.1,#f0e442,#cc79a7,,-0.1,0,#4A4A4A,#4A4A4A,,ARRDHASPCGP4L,001,2020-12-11_20h57.35.538,change-localization,2020.1.2,Win32,60,,,0,19,19,19,1,,
,,0.197916667,-0.0078125,1,0,0,1.13242,probe3,"[0.2,0]",,,,,,21,probe3,0.05,0.05,-0.1,0.1,#0072b2,#0072b2,,-0.1,0.2,#009e73,#009e73,,0.2,0,#56b4e9,#4A4A4A,,-0.2,0.2,#f0e442,#f0e442,,0.2,0.1,#d55e00,#d55e00,,ARRDHASPCGP4L,001,2020-12-11_20h57.35.538,change-localization,2020.1.2,Win32,60,,,0,20,20,20,1,,
,,-0.197916667,-0.104166667,1,0,0,1.24387,probe4,"[-0.2,-0.1]",,,,,,22,probe4,0.05,0.05,0.2,-0.1,#d55e00,#d55e00,,0.2,0,#56b4e9,#56b4e9,,0.1,-0.2,#cc79a7,#cc79a7,,-0.2,-0.1,#4A4A4A,#009e73,,0,-0.2,#e69f00,#e69f00,,ARRDHASPCGP4L,001,2020-12-11_20h57.35.538,change-localization,2020.1.2,Win32,60,,,0,21,21,21,1,,
,,0.110677083,0.08984375,1,0,0,1.35511,probe1,"[0.1,0.1]",,,,,,23,probe4,0.05,0.05,0.1,0.1,#56b4e9,#56b4e9,,-0.2,-0.1,#0072b2,#0072b2,,0.2,0,#d55e00,#d55e00,,-0.2,-0.2,#cc79a7,#009e73,,0.1,-0.2,#4A4A4A,#4A4A4A,,ARRDHASPCGP4L,001,2020-12-11_20h57.35.538,change-localization,2020.1.2,Win32,60,,,0,22,22,22,1,,
,,0.20703125,0.197916667,1,0,0,1.26831,probe2,"[0.2,0.2]",,,,,,24,probe2,0.05,0.05,-0.1,-0.2,#4A4A4A,#4A4A4A,,0.2,0.2,#d55e00,#e69f00,,0.1,-0.1,#f0e442,#f0e442,,0.1,0.1,#56b4e9,#56b4e9,,-0.2,0.1,#cc79a7,#cc79a7,,ARRDHASPCGP4L,001,2020-12-11_20h57.35.538,change-localization,2020.1.2,Win32,60,,,0,23,23,23,1,,
,,-0.119791667,-0.11328125,1,0,0,1.217815,probe2,"[-0.1,-0.1]",,,,,,25,probe3,0.05,0.05,-0.2,-0.2,#f0e442,#f0e442,,-0.1,-0.1,#4A4A4A,#4A4A4A,,0.2,0,#d55e00,#cc79a7,,0,0.2,#0072b2,#0072b2,,-0.2,0.1,#009e73,#009e73,,ARRDHASPCGP4L,001,2020-12-11_20h57.35.538,change-localization,2020.1.2,Win32,60,,,0,24,24,24,1,,
,,-0.188802083,-0.016927083,1,0,0,1.53284,probe2,"[-0.2,0]",,,,,,26,probe3,0.05,0.05,0.1,-0.1,#e69f00,#e69f00,,-0.2,0,#56b4e9,#56b4e9,,-0.1,-0.2,#009e73,#d55e00,,-0.2,-0.1,#4A4A4A,#4A4A4A,,0.1,0,#cc79a7,#cc79a7,,ARRDHASPCGP4L,001,2020-12-11_20h57.35.538,change-localization,2020.1.2,Win32,60,,,0,25,25,25,1,,
,,-0.19140625,-0.0859375,1,0,0,1.073395,probe5,"[-0.2,-0.1]",,,,,,27,probe5,0.05,0.05,-0.1,-0.2,#009e73,#009e73,,0.2,0,#cc79a7,#cc79a7,,-0.1,-0.1,#e69f00,#e69f00,,0.1,0.1,#d55e00,#d55e00,,-0.2,-0.1,#4A4A4A,#0072b2,,ARRDHASPCGP4L,001,2020-12-11_20h57.35.538,change-localization,2020.1.2,Win32,60,,,0,26,26,26,1,,
,,-0.180989583,0.09375,1,0,0,1.25002,probe2,"[-0.2,0.1]",,,,,,28,probe5,0.05,0.05,-0.1,0.2,#009e73,#009e73,,-0.2,0.1,#56b4e9,#56b4e9,,0,-0.2,#d55e00,#d55e00,,0.1,0,#0072b2,#0072b2,,0.1,0.1,#f0e442,#e69f00,,ARRDHASPCGP4L,001,2020-12-11_20h57.35.538,change-localization,2020.1.2,Win32,60,,,0,27,27,27,1,,
,,0.104166667,-0.11328125,1,0,0,1.02911,probe1,"[0.1,-0.1]",,,,,,29,probe1,0.05,0.05,0.1,-0.1,#4A4A4A,#56b4e9,,-0.2,0.2,#e69f00,#e69f00,,-0.1,-0.1,#f0e442,#f0e442,,0.1,0.2,#0072b2,#0072b2,,-0.1,-0.2,#cc79a7,#cc79a7,,ARRDHASPCGP4L,001,2020-12-11_20h57.35.538,change-localization,2020.1.2,Win32,60,,,0,28,28,28,1,,
,,-0.21875,-0.002604167,1,0,0,1.549275,probe5,"[-0.2,0]",,,,,,30,probe2,0.05,0.05,0.1,0.2,#f0e442,#f0e442,,-0.1,-0.2,#d55e00,#4A4A4A,,0,-0.2,#cc79a7,#cc79a7,,0.1,-0.2,#0072b2,#0072b2,,-0.2,0,#009e73,#009e73,,ARRDHASPCGP4L,001,2020-12-11_20h57.35.538,change-localization,2020.1.2,Win32,60,,,0,29,29,29,1,,
,,0.095052083,0.1875,1,0,0,1.138105,probe3,"[0.1,0.2]",,,,,,31,probe5,0.05,0.05,0,-0.2,#d55e00,#d55e00,,0.1,0,#e69f00,#e69f00,,0.1,0.2,#f0e442,#f0e442,,-0.2,-0.1,#cc79a7,#cc79a7,,-0.1,-0.1,#009e73,#4A4A4A,,ARRDHASPCGP4L,001,2020-12-11_20h57.35.538,change-localization,2020.1.2,Win32,60,,,0,30,30,30,1,,
,,-0.201822917,0.098958333,1,0,0,1.17555,probe4,"[-0.2,0.1]",,,,,,32,probe3,0.05,0.05,0.2,0.2,#56b4e9,#56b4e9,,-0.1,-0.1,#009e73,#009e73,,0.2,0.1,#cc79a7,#0072b2,,-0.2,0.1,#4A4A4A,#4A4A4A,,-0.2,-0.1,#f0e442,#f0e442,,ARRDHASPCGP4L,001,2020-12-11_20h57.35.538,change-localization,2020.1.2,Win32,60,,,0,31,31,31,1,,
,,-0.106770833,0.104166667,1,0,0,0.994605,probe3,"[-0.1,0.1]",,,,,,33,probe3,0.05,0.05,-0.1,-0.1,#0072b2,#0072b2,,0.1,0.1,#cc79a7,#cc79a7,,-0.1,0.1,#f0e442,#009e73,,0,-0.2,#56b4e9,#56b4e9,,0.1,0.2,#e69f00,#e69f00,,ARRDHASPCGP4L,001,2020-12-11_20h57.35.538,change-localization,2020.1.2,Win32,60,,,0,32,32,32,1,,
,,-0.1796875,0.09375,1,0,0,1.218135,probe2,"[-0.2,0.1]",,,,,,34,probe5,0.05,0.05,0.2,0.1,#e69f00,#e69f00,,-0.2,0.1,#cc79a7,#cc79a7,,0.1,-0.2,#0072b2,#0072b2,,0.2,-0.2,#d55e00,#d55e00,,-0.2,0,#56b4e9,#009e73,,ARRDHASPCGP4L,001,2020-12-11_20h57.35.538,change-localization,2020.1.2,Win32,60,,,0,33,33,33,1,,
,,-0.010416667,0.192708333,1,0,0,0.9952,probe4,"[0,0.2]",,,,,,35,probe2,0.05,0.05,0.2,0,#56b4e9,#56b4e9,,0.2,-0.1,#e69f00,#009e73,,0.1,-0.1,#f0e442,#f0e442,,0,0.2,#d55e00,#d55e00,,0.1,0.2,#cc79a7,#cc79a7,,ARRDHASPCGP4L,001,2020-12-11_20h57.35.538,change-localization,2020.1.2,Win32,60,,,0,34,34,34,1,,
,,-0.217447917,-0.100260417,1,0,0,1.12681,probe3,"[-0.2,-0.1]",,,,,,36,probe3,0.05,0.05,0,0.1,#4A4A4A,#4A4A4A,,0.2,0.1,#009e73,#009e73,,-0.2,-0.1,#f0e442,#56b4e9,,-0.1,-0.1,#e69f00,#e69f00,,0.1,0,#0072b2,#0072b2,,ARRDHASPCGP4L,001,2020-12-11_20h57.35.538,change-localization,2020.1.2,Win32,60,,,0,35,35,35,1,,
,,0.096354167,0.0078125,1,0,0,1.21978,probe5,"[0.1,0]",,,,,,37,probe5,0.05,0.05,-0.2,0.1,#e69f00,#e69f00,,0.1,0.1,#0072b2,#0072b2,,-0.2,0,#d55e00,#d55e00,,-0.1,0.2,#cc79a7,#cc79a7,,0.1,0,#009e73,#f0e442,,ARRDHASPCGP4L,001,2020-12-11_20h57.35.538,change-localization,2020.1.2,Win32,60,,,0,36,36,36,1,,
,,0.078125,0.002604167,1,0,0,0.78922,probe4,"[0.1,0]",,,,,,38,probe4,0.05,0.05,0.2,-0.2,#4A4A4A,#4A4A4A,,0.2,0,#0072b2,#0072b2,,0.1,-0.1,#e69f00,#e69f00,,0.1,0,#d55e00,#cc79a7,,0,-0.1,#009e73,#009e73,,ARRDHASPCGP4L,001,2020-12-11_20h57.35.538,change-localization,2020.1.2,Win32,60,,,0,37,37,37,1,,
,,-0.1953125,0.201822917,1,0,0,1.23327,probe4,"[-0.2,0.2]",,,,,,39,probe4,0.05,0.05,0.1,-0.1,#e69f00,#e69f00,,-0.2,-0.1,#cc79a7,#cc79a7,,0.2,0.1,#d55e00,#d55e00,,-0.2,0.2,#56b4e9,#f0e442,,0,-0.1,#0072b2,#0072b2,,ARRDHASPCGP4L,001,2020-12-11_20h57.35.538,change-localization,2020.1.2,Win32,60,,,0,38,38,38,1,,
,,-0.19921875,0.104166667,1,0,0,0.99898,probe1,"[-0.2,0.1]",,,,,,40,probe1,0.05,0.05,-0.2,0.1,#4A4A4A,#d55e00,,0.2,0.2,#009e73,#009e73,,-0.1,-0.1,#cc79a7,#cc79a7,,0.2,-0.2,#e69f00,#e69f00,,0.1,-0.1,#56b4e9,#56b4e9,,ARRDHASPCGP4L,001,2020-12-11_20h57.35.538,change-localization,2020.1.2,Win32,60,,,0,39,39,39,1,,
,,-0.078125,-0.005208333,1,0,0,0.965955,probe4,"[-0.1,0]",,,,,,41,probe4,0.05,0.05,0.2,0.1,#009e73,#009e73,,-0.2,-0.1,#0072b2,#0072b2,,-0.2,-0.2,#56b4e9,#56b4e9,,-0.1,0,#f0e442,#cc79a7,,0,-0.2,#d55e00,#d55e00,,ARRDHASPCGP4L,001,2020-12-11_20h57.35.538,change-localization,2020.1.2,Win32,60,,,0,40,40,40,1,,
,,0.111979167,0.111979167,1,0,0,1.117315,probe3,"[0.1,0.1]",,,,,,42,probe4,0.05,0.05,-0.1,-0.2,#009e73,#009e73,,-0.1,0.1,#cc79a7,#cc79a7,,0.1,0.1,#56b4e9,#56b4e9,,0,-0.2,#e69f00,#d55e00,,-0.1,0,#0072b2,#0072b2,,ARRDHASPCGP4L,001,2020-12-11_20h57.35.538,change-localization,2020.1.2,Win32,60,,,0,41,41,41,1,,
,,0.092447917,0.0078125,1,0,0,1.23312,probe2,"[0.1,0]",,,,,,43,probe1,0.05,0.05,0.2,-0.1,#e69f00,#009e73,,0.1,0,#cc79a7,#cc79a7,,-0.2,-0.2,#f0e442,#f0e442,,0.2,-0.2,#56b4e9,#56b4e9,,-0.2,0.1,#4A4A4A,#4A4A4A,,ARRDHASPCGP4L,001,2020-12-11_20h57.35.538,change-localization,2020.1.2,Win32,60,,,0,42,42,42,1,,
,,0.0859375,0.194010417,1,0,0,1.18261,probe4,"[0.1,0.2]",,,,,,44,probe1,0.05,0.05,-0.1,0.2,#56b4e9,#e69f00,,0.2,0.1,#4A4A4A,#4A4A4A,,0.1,0,#cc79a7,#cc79a7,,0.1,0.2,#f0e442,#f0e442,,-0.1,-0.1,#d55e00,#d55e00,,ARRDHASPCGP4L,001,2020-12-11_20h57.35.538,change-localization,2020.1.2,Win32,60,,,0,43,43,43,1,,
,,-0.087239583,0.1953125,1,0,0,2.290355,probe4,"[-0.1,0.2]",,,,,,45,probe3,0.05,0.05,-0.2,0.2,#0072b2,#0072b2,,-0.2,-0.1,#56b4e9,#56b4e9,,-0.1,0.1,#f0e442,#e69f00,,-0.1,0.2,#d55e00,#d55e00,,0,-0.2,#cc79a7,#cc79a7,,ARRDHASPCGP4L,001,2020-12-11_20h57.35.538,change-localization,2020.1.2,Win32,60,,,0,44,44,44,1,,
,,0.091145833,0.190104167,1,0,0,1.182955,probe2,"[0.1,0.2]",,,,,,46,probe5,0.05,0.05,0.2,0.1,#0072b2,#0072b2,,0.1,0.2,#f0e442,#f0e442,,0.2,-0.2,#009e73,#009e73,,0.2,0.2,#4A4A4A,#4A4A4A,,0.2,0,#cc79a7,#e69f00,,ARRDHASPCGP4L,001,2020-12-11_20h57.35.538,change-localization,2020.1.2,Win32,60,,,0,45,45,45,1,,
,,0.1953125,0.227864583,1,0,0,1.27009,probe3,"[0.2,0.2]",,,,,,47,probe3,0.05,0.05,0,-0.1,#009e73,#009e73,,-0.2,0.2,#f0e442,#f0e442,,0.2,0.2,#56b4e9,#cc79a7,,-0.1,0.2,#4A4A4A,#4A4A4A,,-0.1,0.1,#e69f00,#e69f00,,ARRDHASPCGP4L,001,2020-12-11_20h57.35.538,change-localization,2020.1.2,Win32,60,,,0,46,46,46,1,,
,,-0.106770833,0.098958333,1,0,0,2.13284,probe2,"[-0.1,0.1]",,,,,,48,probe4,0.05,0.05,0.2,-0.2,#cc79a7,#cc79a7,,-0.1,0.1,#009e73,#009e73,,0.1,-0.2,#f0e442,#f0e442,,-0.2,-0.1,#d55e00,#0072b2,,-0.1,0,#56b4e9,#56b4e9,,ARRDHASPCGP4L,001,2020-12-11_20h57.35.538,change-localization,2020.1.2,Win32,60,,,0,47,47,47,1,,
,,-0.102864583,0.19921875,1,0,0,2.41601,probe3,"[-0.1,0.2]",,,,,,49,probe2,0.05,0.05,0,-0.2,#e69f00,#e69f00,,-0.2,0,#cc79a7,#0072b2,,-0.1,0.2,#f0e442,#f0e442,,0.1,0.2,#4A4A4A,#4A4A4A,,-0.1,-0.1,#56b4e9,#56b4e9,,ARRDHASPCGP4L,001,2020-12-11_20h57.35.538,change-localization,2020.1.2,Win32,60,,,0,48,48,48,1,,
,,0.10546875,-0.192708333,1,0,0,1.74925,probe3,"[0.1,-0.2]",,,,,,50,probe4,0.05,0.05,0.2,0.1,#0072b2,#0072b2,,0.1,0.1,#cc79a7,#cc79a7,,0.1,-0.2,#56b4e9,#56b4e9,,-0.1,0,#009e73,#e69f00,,0,0.1,#d55e00,#d55e00,,ARRDHASPCGP4L,001,2020-12-11_20h57.35.538,change-localization,2020.1.2,Win32,60,,,0,49,49,49,1,,
,,,,,,,,,,,,,,,,,,,,,,,,,,,,,,,,,,,,,,,,,,,,ARRDHASPCGP4L,001,2020-12-11_20h57.35.538,change-localization,2020.1.2,Win32,60,,,,,,,,c,7.995715
