key_resp.keys,key_resp.rt,mouse.x,mouse.y,mouse.leftButton,mouse.midButton,mouse.rightButton,mouse.time,mouse.clicked_name,mouse.clicked_pos,training.thisRepN,training.thisTrialN,training.thisN,training.thisIndex,training.ran,trial,answer,height,width,x1,y1,stim_color1,probe_color1,copy_color1,x2,y2,stim_color2,probe_color2,copy_color2,x3,y3,stim_color3,probe_color3,copy_color3,x4,y4,stim_color4,probe_color4,copy_color4,x5,y5,stim_color5,probe_color5,copy_color5,participant,session,date,expName,psychopyVersion,OS,frameRate,key_resp_2.keys,key_resp_2.rt,trials.thisRepN,trials.thisTrialN,trials.thisN,trials.thisIndex,trials.ran,completion_keys.keys,completion_keys.rt
c,5.97184,0.200520833,-0.115885417,1,0,0,2.86302,probe4,"[0.2,-0.1]",0,0,0,0,1,1,probe4,0.05,0.05,0.1,0.2,#0072b2,#0072b2,#0072b2,0.1,-0.1,#e69f00,#e69f00,#e69f00,-0.1,-0.2,#cc79a7,#cc79a7,#cc79a7,0.2,-0.1,#4A4A4A,#f0e442,#FFFFFF,0.2,0,#009e73,#009e73,#009e73,AV7A20KYBTQHL,001,2020-12-11_17h56.40.566,change-localization,2020.1.2,Win32,60,,,,,,,,,
,,0.119791667,-0.020833333,1,0,0,2.4063,probe3,"[0.1,0]",0,1,1,1,1,2,probe1,0.05,0.05,0.2,0,#d55e00,#009e73,#FFFFFF,0.2,-0.1,#e69f00,#e69f00,#e69f00,0.1,0,#4A4A4A,#4A4A4A,#4A4A4A,-0.1,0.1,#56b4e9,#56b4e9,#56b4e9,-0.1,0,#cc79a7,#cc79a7,#cc79a7,AV7A20KYBTQHL,001,2020-12-11_17h56.40.566,change-localization,2020.1.2,Win32,60,,,,,,,,,
,,-0.1953125,-0.19140625,1,0,0,1.65438,probe1,"[-0.2,-0.2]",0,2,2,2,1,3,probe1,0.05,0.05,-0.2,-0.2,#f0e442,#009e73,#FFFFFF,0.2,-0.1,#d55e00,#d55e00,#d55e00,-0.2,0,#4A4A4A,#4A4A4A,#4A4A4A,-0.1,-0.1,#0072b2,#0072b2,#0072b2,0,-0.1,#56b4e9,#56b4e9,#56b4e9,AV7A20KYBTQHL,001,2020-12-11_17h56.40.566,change-localization,2020.1.2,Win32,60,,,,,,,,,
,,0.194010417,0.18359375,1,0,0,1.97107,probe1,"[0.2,0.2]",0,3,3,3,1,4,probe1,0.05,0.05,0.2,0.2,#d55e00,#56b4e9,#FFFFFF,-0.2,0.2,#f0e442,#f0e442,#f0e442,0.2,-0.2,#0072b2,#0072b2,#0072b2,-0.2,0,#cc79a7,#cc79a7,#cc79a7,-0.2,0.1,#4A4A4A,#4A4A4A,#4A4A4A,AV7A20KYBTQHL,001,2020-12-11_17h56.40.566,change-localization,2020.1.2,Win32,60,,,,,,,,,
,,0.013020833,0.09765625,1,0,0,1.67107,probe3,"[0,0.1]",0,4,4,4,1,5,probe3,0.05,0.05,-0.2,0.1,#56b4e9,#56b4e9,#56b4e9,0,0.2,#009e73,#009e73,#009e73,0,0.1,#0072b2,#cc79a7,#FFFFFF,-0.1,-0.1,#4A4A4A,#4A4A4A,#4A4A4A,0.2,0,#f0e442,#f0e442,#f0e442,AV7A20KYBTQHL,001,2020-12-11_17h56.40.566,change-localization,2020.1.2,Win32,60,,,,,,,,,
,,0.102864583,-0.010416667,1,0,0,2.03818,probe5,"[0.1,0]",0,5,5,5,1,6,probe5,0.05,0.05,-0.1,0.1,#f0e442,#f0e442,#f0e442,0,0.1,#009e73,#009e73,#009e73,-0.2,0,#4A4A4A,#4A4A4A,#4A4A4A,0,-0.2,#d55e00,#d55e00,#d55e00,0.1,0,#cc79a7,#0072b2,#FFFFFF,AV7A20KYBTQHL,001,2020-12-11_17h56.40.566,change-localization,2020.1.2,Win32,60,,,,,,,,,
,,0.104166667,0.208333333,1,0,0,2.507255,probe2,"[0.1,0.2]",0,6,6,6,1,7,probe2,0.05,0.05,-0.2,-0.2,#4A4A4A,#4A4A4A,#4A4A4A,0.1,0.2,#0072b2,#d55e00,#FFFFFF,-0.1,-0.2,#f0e442,#f0e442,#f0e442,-0.2,0.2,#009e73,#009e73,#009e73,0.2,0.2,#e69f00,#e69f00,#e69f00,AV7A20KYBTQHL,001,2020-12-11_17h56.40.566,change-localization,2020.1.2,Win32,60,,,,,,,,,
,,0.19921875,-0.010416667,1,0,0,1.78939,probe5,"[0.2,0]",0,7,7,7,1,8,probe1,0.05,0.05,0.1,-0.2,#009e73,#f0e442,#FFFFFF,-0.1,0,#d55e00,#d55e00,#d55e00,-0.1,0.1,#4A4A4A,#4A4A4A,#4A4A4A,-0.2,0,#cc79a7,#cc79a7,#cc79a7,0.2,0,#e69f00,#e69f00,#e69f00,AV7A20KYBTQHL,001,2020-12-11_17h56.40.566,change-localization,2020.1.2,Win32,60,,,,,,,,,
,,0.114583333,0.106770833,1,0,0,1.50482,probe5,"[0.1,0.1]",0,8,8,8,1,9,probe1,0.05,0.05,0.1,-0.2,#0072b2,#e69f00,#FFFFFF,-0.1,0.2,#f0e442,#f0e442,#f0e442,-0.2,0.1,#d55e00,#d55e00,#d55e00,0.2,0.2,#cc79a7,#cc79a7,#cc79a7,0.1,0.1,#56b4e9,#56b4e9,#56b4e9,AV7A20KYBTQHL,001,2020-12-11_17h56.40.566,change-localization,2020.1.2,Win32,60,,,,,,,,,
,,-0.109375,-0.109375,1,0,0,1.80511,probe1,"[-0.1,-0.1]",0,9,9,9,1,10,probe1,0.05,0.05,-0.1,-0.1,#4A4A4A,#f0e442,#FFFFFF,0,0.2,#cc79a7,#cc79a7,#cc79a7,0.2,-0.2,#e69f00,#e69f00,#e69f00,0.1,-0.2,#009e73,#009e73,#009e73,0.1,0.1,#d55e00,#d55e00,#d55e00,AV7A20KYBTQHL,001,2020-12-11_17h56.40.566,change-localization,2020.1.2,Win32,60,,,,,,,,,
,,-0.095052083,0.190104167,1,0,0,2.07417,probe2,"[-0.1,0.2]",,,,,,1,probe2,0.05,0.05,-0.2,0.2,#009e73,#009e73,,-0.1,0.2,#f0e442,#e69f00,,-0.1,0,#0072b2,#0072b2,,0,-0.2,#cc79a7,#cc79a7,,0,0.2,#d55e00,#d55e00,,AV7A20KYBTQHL,001,2020-12-11_17h56.40.566,change-localization,2020.1.2,Win32,60,c,4.86737,0,0,0,0,1,,
,,-0.095052083,-0.092447917,1,0,0,2.1313,probe3,"[-0.1,-0.1]",,,,,,2,probe5,0.05,0.05,0,0.1,#009e73,#009e73,,0.2,0.1,#4A4A4A,#4A4A4A,,-0.1,-0.1,#cc79a7,#cc79a7,,0.1,0.1,#d55e00,#d55e00,,0,-0.1,#56b4e9,#e69f00,,AV7A20KYBTQHL,001,2020-12-11_17h56.40.566,change-localization,2020.1.2,Win32,60,,,0,1,1,1,1,,
,,-0.102864583,0.0859375,1,0,0,2.139125,probe4,"[-0.1,0.1]",,,,,,3,probe4,0.05,0.05,0.1,-0.1,#56b4e9,#56b4e9,,0.2,0,#f0e442,#f0e442,,0.2,-0.1,#e69f00,#e69f00,,-0.1,0.1,#4A4A4A,#009e73,,-0.1,0.2,#d55e00,#d55e00,,AV7A20KYBTQHL,001,2020-12-11_17h56.40.566,change-localization,2020.1.2,Win32,60,,,0,2,2,2,1,,
,,-0.197916667,-0.001302083,1,0,0,2.339005,probe5,"[-0.2,0]",,,,,,4,probe5,0.05,0.05,0.2,0,#56b4e9,#56b4e9,,-0.2,-0.2,#cc79a7,#cc79a7,,0,0.2,#4A4A4A,#4A4A4A,,0.2,-0.2,#e69f00,#e69f00,,-0.2,0,#f0e442,#009e73,,AV7A20KYBTQHL,001,2020-12-11_17h56.40.566,change-localization,2020.1.2,Win32,60,,,0,3,3,3,1,,
,,-0.104166667,-0.111979167,1,0,0,1.68803,probe3,"[-0.1,-0.1]",,,,,,5,probe3,0.05,0.05,-0.2,0.1,#4A4A4A,#4A4A4A,,0.2,0.2,#009e73,#009e73,,-0.1,-0.1,#0072b2,#f0e442,,0.2,0,#cc79a7,#cc79a7,,0.1,0.1,#e69f00,#e69f00,,AV7A20KYBTQHL,001,2020-12-11_17h56.40.566,change-localization,2020.1.2,Win32,60,,,0,4,4,4,1,,
,,-0.010416667,0.190104167,1,0,0,1.877835,probe4,"[0,0.2]",,,,,,6,probe4,0.05,0.05,-0.1,0.1,#d55e00,#d55e00,,-0.2,0.2,#0072b2,#0072b2,,0,-0.1,#e69f00,#e69f00,,0,0.2,#56b4e9,#4A4A4A,,-0.2,-0.2,#009e73,#009e73,,AV7A20KYBTQHL,001,2020-12-11_17h56.40.566,change-localization,2020.1.2,Win32,60,,,0,5,5,5,1,,
,,0.196614583,-0.098958333,1,0,0,2.155605,probe1,"[0.2,-0.1]",,,,,,7,probe4,0.05,0.05,0.2,-0.1,#56b4e9,#56b4e9,,-0.1,-0.1,#e69f00,#e69f00,,-0.2,0.2,#009e73,#009e73,,0.2,0.2,#cc79a7,#4A4A4A,,0.2,-0.2,#d55e00,#d55e00,,AV7A20KYBTQHL,001,2020-12-11_17h56.40.566,change-localization,2020.1.2,Win32,60,,,0,6,6,6,1,,
,,-0.197916667,0.194010417,1,0,0,2.723805,probe4,"[-0.2,0.2]",,,,,,8,probe4,0.05,0.05,-0.2,0.1,#e69f00,#e69f00,,0.1,0.2,#cc79a7,#cc79a7,,0.2,0.1,#4A4A4A,#4A4A4A,,-0.2,0.2,#56b4e9,#d55e00,,0.2,-0.1,#0072b2,#0072b2,,AV7A20KYBTQHL,001,2020-12-11_17h56.40.566,change-localization,2020.1.2,Win32,60,,,0,7,7,7,1,,
,,0.221354167,0.080729167,1,0,0,1.68157,probe4,"[0.2,0.1]",,,,,,9,probe5,0.05,0.05,-0.1,0,#4A4A4A,#4A4A4A,,0.1,0.1,#56b4e9,#56b4e9,,-0.2,0.1,#009e73,#009e73,,0.2,0.1,#cc79a7,#cc79a7,,0.2,0.2,#d55e00,#f0e442,,AV7A20KYBTQHL,001,2020-12-11_17h56.40.566,change-localization,2020.1.2,Win32,60,,,0,8,8,8,1,,
,,0.013020833,0.09765625,1,0,0,1.55453,probe3,"[0,0.1]",,,,,,10,probe3,0.05,0.05,0.2,0.2,#f0e442,#f0e442,,0.1,-0.1,#e69f00,#e69f00,,0,0.1,#cc79a7,#4A4A4A,,-0.2,0.1,#56b4e9,#56b4e9,,0.2,0,#0072b2,#0072b2,,AV7A20KYBTQHL,001,2020-12-11_17h56.40.566,change-localization,2020.1.2,Win32,60,,,0,9,9,9,1,,
,,0.098958333,-0.217447917,1,0,0,2.774325,probe5,"[0.1,-0.2]",,,,,,11,probe5,0.05,0.05,0.2,0.2,#4A4A4A,#4A4A4A,,0.1,0.2,#0072b2,#0072b2,,0.1,-0.1,#cc79a7,#cc79a7,,0,-0.2,#009e73,#009e73,,0.1,-0.2,#f0e442,#d55e00,,AV7A20KYBTQHL,001,2020-12-11_17h56.40.566,change-localization,2020.1.2,Win32,60,,,0,10,10,10,1,,
,,-0.010416667,-0.087239583,1,0,0,1.454255,probe5,"[0,-0.1]",,,,,,12,probe4,0.05,0.05,-0.1,-0.1,#009e73,#009e73,,-0.1,0,#56b4e9,#56b4e9,,-0.1,-0.2,#0072b2,#0072b2,,0.1,0,#d55e00,#f0e442,,0,-0.1,#cc79a7,#cc79a7,,AV7A20KYBTQHL,001,2020-12-11_17h56.40.566,change-localization,2020.1.2,Win32,60,,,0,11,11,11,1,,
,,-0.204427083,0.18359375,1,0,0,1.872095,probe4,"[-0.2,0.2]",,,,,,13,probe4,0.05,0.05,0,-0.1,#f0e442,#f0e442,,0.1,-0.1,#d55e00,#d55e00,,0.1,0.1,#0072b2,#0072b2,,-0.2,0.2,#cc79a7,#4A4A4A,,0.1,0.2,#009e73,#009e73,,AV7A20KYBTQHL,001,2020-12-11_17h56.40.566,change-localization,2020.1.2,Win32,60,,,0,12,12,12,1,,
,,0.104166667,0.212239583,1,0,0,1.534695,probe5,"[0.1,0.2]",,,,,,14,probe5,0.05,0.05,0,0.2,#cc79a7,#cc79a7,,0,-0.1,#4A4A4A,#4A4A4A,,-0.2,0,#56b4e9,#56b4e9,,0.1,0.1,#0072b2,#0072b2,,0.1,0.2,#009e73,#e69f00,,AV7A20KYBTQHL,001,2020-12-11_17h56.40.566,change-localization,2020.1.2,Win32,60,,,0,13,13,13,1,,
,,0.20703125,0.08984375,1,0,0,2.15601,probe3,"[0.2,0.1]",,,,,,15,probe3,0.05,0.05,0.2,0.2,#cc79a7,#cc79a7,,0,0.2,#56b4e9,#56b4e9,,0.2,0.1,#d55e00,#4A4A4A,,0.1,-0.1,#f0e442,#f0e442,,0.2,-0.1,#0072b2,#0072b2,,AV7A20KYBTQHL,001,2020-12-11_17h56.40.566,change-localization,2020.1.2,Win32,60,,,0,14,14,14,1,,
,,0.09375,0.096354167,1,0,0,2.005965,probe3,"[0.1,0.1]",,,,,,16,probe3,0.05,0.05,-0.2,-0.1,#f0e442,#f0e442,,-0.2,0.2,#d55e00,#d55e00,,0.1,0.1,#009e73,#4A4A4A,,-0.2,0.1,#56b4e9,#56b4e9,,0,-0.1,#cc79a7,#cc79a7,,AV7A20KYBTQHL,001,2020-12-11_17h56.40.566,change-localization,2020.1.2,Win32,60,,,0,15,15,15,1,,
,,0.015625,0.106770833,1,0,0,1.653375,probe3,"[0,0.1]",,,,,,17,probe3,0.05,0.05,0.2,-0.1,#cc79a7,#cc79a7,,0,-0.2,#0072b2,#0072b2,,0,0.1,#4A4A4A,#e69f00,,-0.2,-0.1,#f0e442,#f0e442,,-0.1,-0.1,#009e73,#009e73,,AV7A20KYBTQHL,001,2020-12-11_17h56.40.566,change-localization,2020.1.2,Win32,60,,,0,16,16,16,1,,
,,0.100260417,-0.091145833,1,0,0,2.206125,probe4,"[0.1,-0.1]",,,,,,18,probe3,0.05,0.05,-0.1,0.1,#d55e00,#d55e00,,-0.1,0.2,#e69f00,#e69f00,,0.2,0,#009e73,#0072b2,,0.1,-0.1,#cc79a7,#cc79a7,,-0.2,0.2,#4A4A4A,#4A4A4A,,AV7A20KYBTQHL,001,2020-12-11_17h56.40.566,change-localization,2020.1.2,Win32,60,,,0,17,17,17,1,,
,,-0.091145833,0.091145833,1,0,0,1.785505,probe3,"[-0.1,0.1]",,,,,,19,probe3,0.05,0.05,-0.1,0.2,#0072b2,#0072b2,,0,-0.1,#4A4A4A,#4A4A4A,,-0.1,0.1,#e69f00,#009e73,,0.2,0.1,#d55e00,#d55e00,,-0.2,0.1,#cc79a7,#cc79a7,,AV7A20KYBTQHL,001,2020-12-11_17h56.40.566,change-localization,2020.1.2,Win32,60,,,0,18,18,18,1,,
,,-0.010416667,-0.109375,1,0,0,2.173315,probe4,"[0,-0.1]",,,,,,20,probe4,0.05,0.05,0.2,0,#56b4e9,#56b4e9,,-0.1,0.2,#009e73,#009e73,,-0.2,-0.2,#e69f00,#e69f00,,0,-0.1,#f0e442,#cc79a7,,-0.1,0,#4A4A4A,#4A4A4A,,AV7A20KYBTQHL,001,2020-12-11_17h56.40.566,change-localization,2020.1.2,Win32,60,,,0,19,19,19,1,,
,,0.1796875,0.096354167,1,0,0,1.737425,probe5,"[0.2,0.1]",,,,,,21,probe3,0.05,0.05,-0.1,0.1,#0072b2,#0072b2,,-0.1,0.2,#009e73,#009e73,,0.2,0,#56b4e9,#4A4A4A,,-0.2,0.2,#f0e442,#f0e442,,0.2,0.1,#d55e00,#d55e00,,AV7A20KYBTQHL,001,2020-12-11_17h56.40.566,change-localization,2020.1.2,Win32,60,,,0,20,20,20,1,,
,,-0.204427083,-0.087239583,1,0,0,2.221275,probe4,"[-0.2,-0.1]",,,,,,22,probe4,0.05,0.05,0.2,-0.1,#d55e00,#d55e00,,0.2,0,#56b4e9,#56b4e9,,0.1,-0.2,#cc79a7,#cc79a7,,-0.2,-0.1,#4A4A4A,#009e73,,0,-0.2,#e69f00,#e69f00,,AV7A20KYBTQHL,001,2020-12-11_17h56.40.566,change-localization,2020.1.2,Win32,60,,,0,21,21,21,1,,
,,-0.209635417,-0.200520833,1,0,0,2.47756,probe4,"[-0.2,-0.2]",,,,,,23,probe4,0.05,0.05,0.1,0.1,#56b4e9,#56b4e9,,-0.2,-0.1,#0072b2,#0072b2,,0.2,0,#d55e00,#d55e00,,-0.2,-0.2,#cc79a7,#009e73,,0.1,-0.2,#4A4A4A,#4A4A4A,,AV7A20KYBTQHL,001,2020-12-11_17h56.40.566,change-localization,2020.1.2,Win32,60,,,0,22,22,22,1,,
,,0.110677083,0.110677083,1,0,0,1.829295,probe4,"[0.1,0.1]",,,,,,24,probe2,0.05,0.05,-0.1,-0.2,#4A4A4A,#4A4A4A,,0.2,0.2,#d55e00,#e69f00,,0.1,-0.1,#f0e442,#f0e442,,0.1,0.1,#56b4e9,#56b4e9,,-0.2,0.1,#cc79a7,#cc79a7,,AV7A20KYBTQHL,001,2020-12-11_17h56.40.566,change-localization,2020.1.2,Win32,60,,,0,23,23,23,1,,
,,0.022135417,0.186197917,1,0,0,2.019785,probe4,"[0,0.2]",,,,,,25,probe3,0.05,0.05,-0.2,-0.2,#f0e442,#f0e442,,-0.1,-0.1,#4A4A4A,#4A4A4A,,0.2,0,#d55e00,#cc79a7,,0,0.2,#0072b2,#0072b2,,-0.2,0.1,#009e73,#009e73,,AV7A20KYBTQHL,001,2020-12-11_17h56.40.566,change-localization,2020.1.2,Win32,60,,,0,24,24,24,1,,
,,-0.091145833,-0.204427083,1,0,0,1.97118,probe3,"[-0.1,-0.2]",,,,,,26,probe3,0.05,0.05,0.1,-0.1,#e69f00,#e69f00,,-0.2,0,#56b4e9,#56b4e9,,-0.1,-0.2,#009e73,#d55e00,,-0.2,-0.1,#4A4A4A,#4A4A4A,,0.1,0,#cc79a7,#cc79a7,,AV7A20KYBTQHL,001,2020-12-11_17h56.40.566,change-localization,2020.1.2,Win32,60,,,0,25,25,25,1,,
,,-0.091145833,-0.204427083,1,0,0,1.1029,probe1,"[-0.1,-0.2]",,,,,,27,probe5,0.05,0.05,-0.1,-0.2,#009e73,#009e73,,0.2,0,#cc79a7,#cc79a7,,-0.1,-0.1,#e69f00,#e69f00,,0.1,0.1,#d55e00,#d55e00,,-0.2,-0.1,#4A4A4A,#0072b2,,AV7A20KYBTQHL,001,2020-12-11_17h56.40.566,change-localization,2020.1.2,Win32,60,,,0,26,26,26,1,,
,,0.092447917,0.01171875,1,0,0,1.68785,probe4,"[0.1,0]",,,,,,28,probe5,0.05,0.05,-0.1,0.2,#009e73,#009e73,,-0.2,0.1,#56b4e9,#56b4e9,,0,-0.2,#d55e00,#d55e00,,0.1,0,#0072b2,#0072b2,,0.1,0.1,#f0e442,#e69f00,,AV7A20KYBTQHL,001,2020-12-11_17h56.40.566,change-localization,2020.1.2,Win32,60,,,0,27,27,27,1,,
,,0.10546875,-0.10546875,1,0,0,2.671735,probe1,"[0.1,-0.1]",,,,,,29,probe1,0.05,0.05,0.1,-0.1,#4A4A4A,#56b4e9,,-0.2,0.2,#e69f00,#e69f00,,-0.1,-0.1,#f0e442,#f0e442,,0.1,0.2,#0072b2,#0072b2,,-0.1,-0.2,#cc79a7,#cc79a7,,AV7A20KYBTQHL,001,2020-12-11_17h56.40.566,change-localization,2020.1.2,Win32,60,,,0,28,28,28,1,,
,,-0.09765625,-0.20703125,1,0,0,1.74582,probe2,"[-0.1,-0.2]",,,,,,30,probe2,0.05,0.05,0.1,0.2,#f0e442,#f0e442,,-0.1,-0.2,#d55e00,#4A4A4A,,0,-0.2,#cc79a7,#cc79a7,,0.1,-0.2,#0072b2,#0072b2,,-0.2,0,#009e73,#009e73,,AV7A20KYBTQHL,001,2020-12-11_17h56.40.566,change-localization,2020.1.2,Win32,60,,,0,29,29,29,1,,
,,-0.09375,-0.078125,1,0,0,1.813025,probe5,"[-0.1,-0.1]",,,,,,31,probe5,0.05,0.05,0,-0.2,#d55e00,#d55e00,,0.1,0,#e69f00,#e69f00,,0.1,0.2,#f0e442,#f0e442,,-0.2,-0.1,#cc79a7,#cc79a7,,-0.1,-0.1,#009e73,#4A4A4A,,AV7A20KYBTQHL,001,2020-12-11_17h56.40.566,change-localization,2020.1.2,Win32,60,,,0,30,30,30,1,,
,,0.203125,0.106770833,1,0,0,2.018925,probe3,"[0.2,0.1]",,,,,,32,probe3,0.05,0.05,0.2,0.2,#56b4e9,#56b4e9,,-0.1,-0.1,#009e73,#009e73,,0.2,0.1,#cc79a7,#0072b2,,-0.2,0.1,#4A4A4A,#4A4A4A,,-0.2,-0.1,#f0e442,#f0e442,,AV7A20KYBTQHL,001,2020-12-11_17h56.40.566,change-localization,2020.1.2,Win32,60,,,0,31,31,31,1,,
,,-0.100260417,0.09765625,1,0,0,2.013305,probe3,"[-0.1,0.1]",,,,,,33,probe3,0.05,0.05,-0.1,-0.1,#0072b2,#0072b2,,0.1,0.1,#cc79a7,#cc79a7,,-0.1,0.1,#f0e442,#009e73,,0,-0.2,#56b4e9,#56b4e9,,0.1,0.2,#e69f00,#e69f00,,AV7A20KYBTQHL,001,2020-12-11_17h56.40.566,change-localization,2020.1.2,Win32,60,,,0,32,32,32,1,,
,,-0.20703125,-0.013020833,1,0,0,2.030335,probe5,"[-0.2,0]",,,,,,34,probe5,0.05,0.05,0.2,0.1,#e69f00,#e69f00,,-0.2,0.1,#cc79a7,#cc79a7,,0.1,-0.2,#0072b2,#0072b2,,0.2,-0.2,#d55e00,#d55e00,,-0.2,0,#56b4e9,#009e73,,AV7A20KYBTQHL,001,2020-12-11_17h56.40.566,change-localization,2020.1.2,Win32,60,,,0,33,33,33,1,,
,,0.084635417,-0.108072917,1,0,0,2.016125,probe3,"[0.1,-0.1]",,,,,,35,probe2,0.05,0.05,0.2,0,#56b4e9,#56b4e9,,0.2,-0.1,#e69f00,#009e73,,0.1,-0.1,#f0e442,#f0e442,,0,0.2,#d55e00,#d55e00,,0.1,0.2,#cc79a7,#cc79a7,,AV7A20KYBTQHL,001,2020-12-11_17h56.40.566,change-localization,2020.1.2,Win32,60,,,0,34,34,34,1,,
,,-0.201822917,-0.1015625,1,0,0,2.015235,probe3,"[-0.2,-0.1]",,,,,,36,probe3,0.05,0.05,0,0.1,#4A4A4A,#4A4A4A,,0.2,0.1,#009e73,#009e73,,-0.2,-0.1,#f0e442,#56b4e9,,-0.1,-0.1,#e69f00,#e69f00,,0.1,0,#0072b2,#0072b2,,AV7A20KYBTQHL,001,2020-12-11_17h56.40.566,change-localization,2020.1.2,Win32,60,,,0,35,35,35,1,,
,,0.095052083,-0.013020833,1,0,0,2.883195,probe5,"[0.1,0]",,,,,,37,probe5,0.05,0.05,-0.2,0.1,#e69f00,#e69f00,,0.1,0.1,#0072b2,#0072b2,,-0.2,0,#d55e00,#d55e00,,-0.1,0.2,#cc79a7,#cc79a7,,0.1,0,#009e73,#f0e442,,AV7A20KYBTQHL,001,2020-12-11_17h56.40.566,change-localization,2020.1.2,Win32,60,,,0,36,36,36,1,,
,,0.095052083,-0.013020833,1,0,0,1.51918,probe4,"[0.1,0]",,,,,,38,probe4,0.05,0.05,0.2,-0.2,#4A4A4A,#4A4A4A,,0.2,0,#0072b2,#0072b2,,0.1,-0.1,#e69f00,#e69f00,,0.1,0,#d55e00,#cc79a7,,0,-0.1,#009e73,#009e73,,AV7A20KYBTQHL,001,2020-12-11_17h56.40.566,change-localization,2020.1.2,Win32,60,,,0,37,37,37,1,,
,,-0.2109375,0.194010417,1,0,0,2.692915,probe4,"[-0.2,0.2]",,,,,,39,probe4,0.05,0.05,0.1,-0.1,#e69f00,#e69f00,,-0.2,-0.1,#cc79a7,#cc79a7,,0.2,0.1,#d55e00,#d55e00,,-0.2,0.2,#56b4e9,#f0e442,,0,-0.1,#0072b2,#0072b2,,AV7A20KYBTQHL,001,2020-12-11_17h56.40.566,change-localization,2020.1.2,Win32,60,,,0,38,38,38,1,,
,,-0.203125,0.102864583,1,0,0,1.618285,probe1,"[-0.2,0.1]",,,,,,40,probe1,0.05,0.05,-0.2,0.1,#4A4A4A,#d55e00,,0.2,0.2,#009e73,#009e73,,-0.1,-0.1,#cc79a7,#cc79a7,,0.2,-0.2,#e69f00,#e69f00,,0.1,-0.1,#56b4e9,#56b4e9,,AV7A20KYBTQHL,001,2020-12-11_17h56.40.566,change-localization,2020.1.2,Win32,60,,,0,39,39,39,1,,
,,-0.087239583,-0.014322917,1,0,0,2.04438,probe4,"[-0.1,0]",,,,,,41,probe4,0.05,0.05,0.2,0.1,#009e73,#009e73,,-0.2,-0.1,#0072b2,#0072b2,,-0.2,-0.2,#56b4e9,#56b4e9,,-0.1,0,#f0e442,#cc79a7,,0,-0.2,#d55e00,#d55e00,,AV7A20KYBTQHL,001,2020-12-11_17h56.40.566,change-localization,2020.1.2,Win32,60,,,0,40,40,40,1,,
,,-0.096354167,-0.1875,1,0,0,1.838335,probe1,"[-0.1,-0.2]",,,,,,42,probe4,0.05,0.05,-0.1,-0.2,#009e73,#009e73,,-0.1,0.1,#cc79a7,#cc79a7,,0.1,0.1,#56b4e9,#56b4e9,,0,-0.2,#e69f00,#d55e00,,-0.1,0,#0072b2,#0072b2,,AV7A20KYBTQHL,001,2020-12-11_17h56.40.566,change-localization,2020.1.2,Win32,60,,,0,41,41,41,1,,
,,0.201822917,-0.091145833,1,0,0,2.008915,probe1,"[0.2,-0.1]",,,,,,43,probe1,0.05,0.05,0.2,-0.1,#e69f00,#009e73,,0.1,0,#cc79a7,#cc79a7,,-0.2,-0.2,#f0e442,#f0e442,,0.2,-0.2,#56b4e9,#56b4e9,,-0.2,0.1,#4A4A4A,#4A4A4A,,AV7A20KYBTQHL,001,2020-12-11_17h56.40.566,change-localization,2020.1.2,Win32,60,,,0,42,42,42,1,,
,,-0.11328125,0.1953125,1,0,0,2.173815,probe1,"[-0.1,0.2]",,,,,,44,probe1,0.05,0.05,-0.1,0.2,#56b4e9,#e69f00,,0.2,0.1,#4A4A4A,#4A4A4A,,0.1,0,#cc79a7,#cc79a7,,0.1,0.2,#f0e442,#f0e442,,-0.1,-0.1,#d55e00,#d55e00,,AV7A20KYBTQHL,001,2020-12-11_17h56.40.566,change-localization,2020.1.2,Win32,60,,,0,43,43,43,1,,
,,-0.212239583,-0.119791667,1,0,0,2.460145,probe2,"[-0.2,-0.1]",,,,,,45,probe3,0.05,0.05,-0.2,0.2,#0072b2,#0072b2,,-0.2,-0.1,#56b4e9,#56b4e9,,-0.1,0.1,#f0e442,#e69f00,,-0.1,0.2,#d55e00,#d55e00,,0,-0.2,#cc79a7,#cc79a7,,AV7A20KYBTQHL,001,2020-12-11_17h56.40.566,change-localization,2020.1.2,Win32,60,,,0,44,44,44,1,,
,,0.2109375,0.001302083,1,0,0,2.24121,probe5,"[0.2,0]",,,,,,46,probe5,0.05,0.05,0.2,0.1,#0072b2,#0072b2,,0.1,0.2,#f0e442,#f0e442,,0.2,-0.2,#009e73,#009e73,,0.2,0.2,#4A4A4A,#4A4A4A,,0.2,0,#cc79a7,#e69f00,,AV7A20KYBTQHL,001,2020-12-11_17h56.40.566,change-localization,2020.1.2,Win32,60,,,0,45,45,45,1,,
,,0.201822917,0.18359375,1,0,0,2.14314,probe3,"[0.2,0.2]",,,,,,47,probe3,0.05,0.05,0,-0.1,#009e73,#009e73,,-0.2,0.2,#f0e442,#f0e442,,0.2,0.2,#56b4e9,#cc79a7,,-0.1,0.2,#4A4A4A,#4A4A4A,,-0.1,0.1,#e69f00,#e69f00,,AV7A20KYBTQHL,001,2020-12-11_17h56.40.566,change-localization,2020.1.2,Win32,60,,,0,46,46,46,1,,
,,-0.221354167,-0.122395833,1,0,0,2.879495,probe4,"[-0.2,-0.1]",,,,,,48,probe4,0.05,0.05,0.2,-0.2,#cc79a7,#cc79a7,,-0.1,0.1,#009e73,#009e73,,0.1,-0.2,#f0e442,#f0e442,,-0.2,-0.1,#d55e00,#0072b2,,-0.1,0,#56b4e9,#56b4e9,,AV7A20KYBTQHL,001,2020-12-11_17h56.40.566,change-localization,2020.1.2,Win32,60,,,0,47,47,47,1,,
,,-0.19921875,-0.015625,1,0,0,2.084385,probe2,"[-0.2,0]",,,,,,49,probe2,0.05,0.05,0,-0.2,#e69f00,#e69f00,,-0.2,0,#cc79a7,#0072b2,,-0.1,0.2,#f0e442,#f0e442,,0.1,0.2,#4A4A4A,#4A4A4A,,-0.1,-0.1,#56b4e9,#56b4e9,,AV7A20KYBTQHL,001,2020-12-11_17h56.40.566,change-localization,2020.1.2,Win32,60,,,0,48,48,48,1,,
,,-0.09765625,0.018229167,1,0,0,2.24527,probe4,"[-0.1,0]",,,,,,50,probe4,0.05,0.05,0.2,0.1,#0072b2,#0072b2,,0.1,0.1,#cc79a7,#cc79a7,,0.1,-0.2,#56b4e9,#56b4e9,,-0.1,0,#009e73,#e69f00,,0,0.1,#d55e00,#d55e00,,AV7A20KYBTQHL,001,2020-12-11_17h56.40.566,change-localization,2020.1.2,Win32,60,,,0,49,49,49,1,,
,,,,,,,,,,,,,,,,,,,,,,,,,,,,,,,,,,,,,,,,,,,,AV7A20KYBTQHL,001,2020-12-11_17h56.40.566,change-localization,2020.1.2,Win32,60,,,,,,,,c,5.19529
