key_resp.keys,key_resp.rt,mouse.x,mouse.y,mouse.leftButton,mouse.midButton,mouse.rightButton,mouse.time,mouse.clicked_name,mouse.clicked_pos,training.thisRepN,training.thisTrialN,training.thisN,training.thisIndex,training.ran,trial,answer,height,width,x1,y1,stim_color1,probe_color1,copy_color1,x2,y2,stim_color2,probe_color2,copy_color2,x3,y3,stim_color3,probe_color3,copy_color3,x4,y4,stim_color4,probe_color4,copy_color4,x5,y5,stim_color5,probe_color5,copy_color5,participant,session,date,expName,psychopyVersion,OS,frameRate,key_resp_2.keys,key_resp_2.rt,trials.thisRepN,trials.thisTrialN,trials.thisN,trials.thisIndex,trials.ran,completion_keys.keys,completion_keys.rt
c,103.217655,0.221191406,-0.094931641,1,0,0,1.01419,probe4,"[0.2,-0.1]",0,0,0,0,1,1,probe4,0.05,0.05,0.1,0.2,#0072b2,#0072b2,#0072b2,0.1,-0.1,#e69f00,#e69f00,#e69f00,-0.1,-0.2,#cc79a7,#cc79a7,#cc79a7,0.2,-0.1,#4A4A4A,#f0e442,#FFFFFF,0.2,0,#009e73,#009e73,#009e73,AVAJTAKT73XOO,001,2020-12-11_19h38.49.130,change-localization,2020.1.2,MacIntel,60,,,,,,,,,
,,0.204458008,0.01956543,1,0,0,1.180405,probe1,"[0.2,0]",0,1,1,1,1,2,probe1,0.05,0.05,0.2,0,#d55e00,#009e73,#FFFFFF,0.2,-0.1,#e69f00,#e69f00,#e69f00,0.1,0,#4A4A4A,#4A4A4A,#4A4A4A,-0.1,0.1,#56b4e9,#56b4e9,#56b4e9,-0.1,0,#cc79a7,#cc79a7,#cc79a7,AVAJTAKT73XOO,001,2020-12-11_19h38.49.130,change-localization,2020.1.2,MacIntel,60,,,,,,,,,
,,-0.191074219,-0.200507812,1,0,0,1.146345,probe1,"[-0.2,-0.2]",0,2,2,2,1,3,probe1,0.05,0.05,-0.2,-0.2,#f0e442,#009e73,#FFFFFF,0.2,-0.1,#d55e00,#d55e00,#d55e00,-0.2,0,#4A4A4A,#4A4A4A,#4A4A4A,-0.1,-0.1,#0072b2,#0072b2,#0072b2,0,-0.1,#56b4e9,#56b4e9,#56b4e9,AVAJTAKT73XOO,001,2020-12-11_19h38.49.130,change-localization,2020.1.2,MacIntel,60,,,,,,,,,
,,0.223720703,0.211313477,1,0,0,0.98044,probe1,"[0.2,0.2]",0,3,3,3,1,4,probe1,0.05,0.05,0.2,0.2,#d55e00,#56b4e9,#FFFFFF,-0.2,0.2,#f0e442,#f0e442,#f0e442,0.2,-0.2,#0072b2,#0072b2,#0072b2,-0.2,0,#cc79a7,#cc79a7,#cc79a7,-0.2,0.1,#4A4A4A,#4A4A4A,#4A4A4A,AVAJTAKT73XOO,001,2020-12-11_19h38.49.130,change-localization,2020.1.2,MacIntel,60,,,,,,,,,
,,0.000537109,0.086313477,1,0,0,0.830235,probe3,"[0,0.1]",0,4,4,4,1,5,probe3,0.05,0.05,-0.2,0.1,#56b4e9,#56b4e9,#56b4e9,0,0.2,#009e73,#009e73,#009e73,0,0.1,#0072b2,#cc79a7,#FFFFFF,-0.1,-0.1,#4A4A4A,#4A4A4A,#4A4A4A,0.2,0,#f0e442,#f0e442,#f0e442,AVAJTAKT73XOO,001,2020-12-11_19h38.49.130,change-localization,2020.1.2,MacIntel,60,,,,,,,,,
,,0.101518555,-0.002416992,1,0,0,0.81426,probe5,"[0.1,0]",0,5,5,5,1,6,probe5,0.05,0.05,-0.1,0.1,#f0e442,#f0e442,#f0e442,0,0.1,#009e73,#009e73,#009e73,-0.2,0,#4A4A4A,#4A4A4A,#4A4A4A,0,-0.2,#d55e00,#d55e00,#d55e00,0.1,0,#cc79a7,#0072b2,#FFFFFF,AVAJTAKT73XOO,001,2020-12-11_19h38.49.130,change-localization,2020.1.2,MacIntel,60,,,,,,,,,
,,0.100654297,0.214614258,1,0,0,0.964295,probe2,"[0.1,0.2]",0,6,6,6,1,7,probe2,0.05,0.05,-0.2,-0.2,#4A4A4A,#4A4A4A,#4A4A4A,0.1,0.2,#0072b2,#d55e00,#FFFFFF,-0.1,-0.2,#f0e442,#f0e442,#f0e442,-0.2,0.2,#009e73,#009e73,#009e73,0.2,0.2,#e69f00,#e69f00,#e69f00,AVAJTAKT73XOO,001,2020-12-11_19h38.49.130,change-localization,2020.1.2,MacIntel,60,,,,,,,,,
,,0.10581543,-0.182773437,1,0,0,1.44485,probe1,"[0.1,-0.2]",0,7,7,7,1,8,probe1,0.05,0.05,0.1,-0.2,#009e73,#f0e442,#FFFFFF,-0.1,0,#d55e00,#d55e00,#d55e00,-0.1,0.1,#4A4A4A,#4A4A4A,#4A4A4A,-0.2,0,#cc79a7,#cc79a7,#cc79a7,0.2,0,#e69f00,#e69f00,#e69f00,AVAJTAKT73XOO,001,2020-12-11_19h38.49.130,change-localization,2020.1.2,MacIntel,60,,,,,,,,,
,,-0.209174805,0.106748047,1,0,0,1.01394,probe3,"[-0.2,0.1]",0,8,8,8,1,9,probe1,0.05,0.05,0.1,-0.2,#0072b2,#e69f00,#FFFFFF,-0.1,0.2,#f0e442,#f0e442,#f0e442,-0.2,0.1,#d55e00,#d55e00,#d55e00,0.2,0.2,#cc79a7,#cc79a7,#cc79a7,0.1,0.1,#56b4e9,#56b4e9,#56b4e9,AVAJTAKT73XOO,001,2020-12-11_19h38.49.130,change-localization,2020.1.2,MacIntel,60,,,,,,,,,
,,-0.108613281,-0.077685547,1,0,0,1.01475,probe1,"[-0.1,-0.1]",0,9,9,9,1,10,probe1,0.05,0.05,-0.1,-0.1,#4A4A4A,#f0e442,#FFFFFF,0,0.2,#cc79a7,#cc79a7,#cc79a7,0.2,-0.2,#e69f00,#e69f00,#e69f00,0.1,-0.2,#009e73,#009e73,#009e73,0.1,0.1,#d55e00,#d55e00,#d55e00,AVAJTAKT73XOO,001,2020-12-11_19h38.49.130,change-localization,2020.1.2,MacIntel,60,,,,,,,,,
,,-0.101821289,0.187285156,1,0,0,1.081115,probe2,"[-0.1,0.2]",,,,,,1,probe2,0.05,0.05,-0.2,0.2,#009e73,#009e73,,-0.1,0.2,#f0e442,#e69f00,,-0.1,0,#0072b2,#0072b2,,0,-0.2,#cc79a7,#cc79a7,,0,0.2,#d55e00,#d55e00,,AVAJTAKT73XOO,001,2020-12-11_19h38.49.130,change-localization,2020.1.2,MacIntel,60,c,2.175225,0,0,0,0,1,,
,,0.224926758,0.0971875,1,0,0,1.51249,probe2,"[0.2,0.1]",,,,,,2,probe5,0.05,0.05,0,0.1,#009e73,#009e73,,0.2,0.1,#4A4A4A,#4A4A4A,,-0.1,-0.1,#cc79a7,#cc79a7,,0.1,0.1,#d55e00,#d55e00,,0,-0.1,#56b4e9,#e69f00,,AVAJTAKT73XOO,001,2020-12-11_19h38.49.130,change-localization,2020.1.2,MacIntel,60,,,0,1,1,1,1,,
,,-0.101323242,0.108505859,1,0,0,1.180365,probe4,"[-0.1,0.1]",,,,,,3,probe4,0.05,0.05,0.1,-0.1,#56b4e9,#56b4e9,,0.2,0,#f0e442,#f0e442,,0.2,-0.1,#e69f00,#e69f00,,-0.1,0.1,#4A4A4A,#009e73,,-0.1,0.2,#d55e00,#d55e00,,AVAJTAKT73XOO,001,2020-12-11_19h38.49.130,change-localization,2020.1.2,MacIntel,60,,,0,2,2,2,1,,
,,-0.22027832,-0.003896484,1,0,0,0.74811,probe5,"[-0.2,0]",,,,,,4,probe5,0.05,0.05,0.2,0,#56b4e9,#56b4e9,,-0.2,-0.2,#cc79a7,#cc79a7,,0,0.2,#4A4A4A,#4A4A4A,,0.2,-0.2,#e69f00,#e69f00,,-0.2,0,#f0e442,#009e73,,AVAJTAKT73XOO,001,2020-12-11_19h38.49.130,change-localization,2020.1.2,MacIntel,60,,,0,3,3,3,1,,
,,0.195957031,-0.017075195,1,0,0,1.36296,probe4,"[0.2,0]",,,,,,5,probe3,0.05,0.05,-0.2,0.1,#4A4A4A,#4A4A4A,,0.2,0.2,#009e73,#009e73,,-0.1,-0.1,#0072b2,#f0e442,,0.2,0,#cc79a7,#cc79a7,,0.1,0.1,#e69f00,#e69f00,,AVAJTAKT73XOO,001,2020-12-11_19h38.49.130,change-localization,2020.1.2,MacIntel,60,,,0,4,4,4,1,,
,,0.0025,0.197441406,1,0,0,0.898605,probe4,"[0,0.2]",,,,,,6,probe4,0.05,0.05,-0.1,0.1,#d55e00,#d55e00,,-0.2,0.2,#0072b2,#0072b2,,0,-0.1,#e69f00,#e69f00,,0,0.2,#56b4e9,#4A4A4A,,-0.2,-0.2,#009e73,#009e73,,AVAJTAKT73XOO,001,2020-12-11_19h38.49.130,change-localization,2020.1.2,MacIntel,60,,,0,5,5,5,1,,
,,0.206455078,0.184995117,1,0,0,0.97994,probe4,"[0.2,0.2]",,,,,,7,probe4,0.05,0.05,0.2,-0.1,#56b4e9,#56b4e9,,-0.1,-0.1,#e69f00,#e69f00,,-0.2,0.2,#009e73,#009e73,,0.2,0.2,#cc79a7,#4A4A4A,,0.2,-0.2,#d55e00,#d55e00,,AVAJTAKT73XOO,001,2020-12-11_19h38.49.130,change-localization,2020.1.2,MacIntel,60,,,0,6,6,6,1,,
,,-0.194204102,0.095307617,1,0,0,0.93174,probe1,"[-0.2,0.1]",,,,,,8,probe4,0.05,0.05,-0.2,0.1,#e69f00,#e69f00,,0.1,0.2,#cc79a7,#cc79a7,,0.2,0.1,#4A4A4A,#4A4A4A,,-0.2,0.2,#56b4e9,#d55e00,,0.2,-0.1,#0072b2,#0072b2,,AVAJTAKT73XOO,001,2020-12-11_19h38.49.130,change-localization,2020.1.2,MacIntel,60,,,0,7,7,7,1,,
,,0.20581543,0.192998047,1,0,0,1.413355,probe5,"[0.2,0.2]",,,,,,9,probe5,0.05,0.05,-0.1,0,#4A4A4A,#4A4A4A,,0.1,0.1,#56b4e9,#56b4e9,,-0.2,0.1,#009e73,#009e73,,0.2,0.1,#cc79a7,#cc79a7,,0.2,0.2,#d55e00,#f0e442,,AVAJTAKT73XOO,001,2020-12-11_19h38.49.130,change-localization,2020.1.2,MacIntel,60,,,0,8,8,8,1,,
,,0.011386719,0.097514648,1,0,0,0.9121,probe3,"[0,0.1]",,,,,,10,probe3,0.05,0.05,0.2,0.2,#f0e442,#f0e442,,0.1,-0.1,#e69f00,#e69f00,,0,0.1,#cc79a7,#4A4A4A,,-0.2,0.1,#56b4e9,#56b4e9,,0.2,0,#0072b2,#0072b2,,AVAJTAKT73XOO,001,2020-12-11_19h38.49.130,change-localization,2020.1.2,MacIntel,60,,,0,9,9,9,1,,
,,0.110561523,-0.208857422,1,0,0,0.830955,probe5,"[0.1,-0.2]",,,,,,11,probe5,0.05,0.05,0.2,0.2,#4A4A4A,#4A4A4A,,0.1,0.2,#0072b2,#0072b2,,0.1,-0.1,#cc79a7,#cc79a7,,0,-0.2,#009e73,#009e73,,0.1,-0.2,#f0e442,#d55e00,,AVAJTAKT73XOO,001,2020-12-11_19h38.49.130,change-localization,2020.1.2,MacIntel,60,,,0,10,10,10,1,,
,,0.094882812,0.038325195,1,0,0,1.13092,probe4,"[0.1,0]",,,,,,12,probe4,0.05,0.05,-0.1,-0.1,#009e73,#009e73,,-0.1,0,#56b4e9,#56b4e9,,-0.1,-0.2,#0072b2,#0072b2,,0.1,0,#d55e00,#f0e442,,0,-0.1,#cc79a7,#cc79a7,,AVAJTAKT73XOO,001,2020-12-11_19h38.49.130,change-localization,2020.1.2,MacIntel,60,,,0,11,11,11,1,,
,,-0.199404297,0.191499023,1,0,0,0.91393,probe4,"[-0.2,0.2]",,,,,,13,probe4,0.05,0.05,0,-0.1,#f0e442,#f0e442,,0.1,-0.1,#d55e00,#d55e00,,0.1,0.1,#0072b2,#0072b2,,-0.2,0.2,#cc79a7,#4A4A4A,,0.1,0.2,#009e73,#009e73,,AVAJTAKT73XOO,001,2020-12-11_19h38.49.130,change-localization,2020.1.2,MacIntel,60,,,0,12,12,12,1,,
,,0.090756836,0.186557617,1,0,0,0.747785,probe5,"[0.1,0.2]",,,,,,14,probe5,0.05,0.05,0,0.2,#cc79a7,#cc79a7,,0,-0.1,#4A4A4A,#4A4A4A,,-0.2,0,#56b4e9,#56b4e9,,0.1,0.1,#0072b2,#0072b2,,0.1,0.2,#009e73,#e69f00,,AVAJTAKT73XOO,001,2020-12-11_19h38.49.130,change-localization,2020.1.2,MacIntel,60,,,0,13,13,13,1,,
,,0.192973633,0.103442383,1,0,0,0.764285,probe3,"[0.2,0.1]",,,,,,15,probe3,0.05,0.05,0.2,0.2,#cc79a7,#cc79a7,,0,0.2,#56b4e9,#56b4e9,,0.2,0.1,#d55e00,#4A4A4A,,0.1,-0.1,#f0e442,#f0e442,,0.2,-0.1,#0072b2,#0072b2,,AVAJTAKT73XOO,001,2020-12-11_19h38.49.130,change-localization,2020.1.2,MacIntel,60,,,0,14,14,14,1,,
,,0.118129883,0.107788086,1,0,0,0.78212,probe3,"[0.1,0.1]",,,,,,16,probe3,0.05,0.05,-0.2,-0.1,#f0e442,#f0e442,,-0.2,0.2,#d55e00,#d55e00,,0.1,0.1,#009e73,#4A4A4A,,-0.2,0.1,#56b4e9,#56b4e9,,0,-0.1,#cc79a7,#cc79a7,,AVAJTAKT73XOO,001,2020-12-11_19h38.49.130,change-localization,2020.1.2,MacIntel,60,,,0,15,15,15,1,,
,,-0.001303711,0.099150391,1,0,0,1.013495,probe3,"[0,0.1]",,,,,,17,probe3,0.05,0.05,0.2,-0.1,#cc79a7,#cc79a7,,0,-0.2,#0072b2,#0072b2,,0,0.1,#4A4A4A,#e69f00,,-0.2,-0.1,#f0e442,#f0e442,,-0.1,-0.1,#009e73,#009e73,,AVAJTAKT73XOO,001,2020-12-11_19h38.49.130,change-localization,2020.1.2,MacIntel,60,,,0,16,16,16,1,,
,,-0.089472656,0.0915625,1,0,0,0.74855,probe1,"[-0.1,0.1]",,,,,,18,probe3,0.05,0.05,-0.1,0.1,#d55e00,#d55e00,,-0.1,0.2,#e69f00,#e69f00,,0.2,0,#009e73,#0072b2,,0.1,-0.1,#cc79a7,#cc79a7,,-0.2,0.2,#4A4A4A,#4A4A4A,,AVAJTAKT73XOO,001,2020-12-11_19h38.49.130,change-localization,2020.1.2,MacIntel,60,,,0,17,17,17,1,,
,,-0.089472656,0.0915625,1,0,0,0.548325,probe3,"[-0.1,0.1]",,,,,,19,probe3,0.05,0.05,-0.1,0.2,#0072b2,#0072b2,,0,-0.1,#4A4A4A,#4A4A4A,,-0.1,0.1,#e69f00,#009e73,,0.2,0.1,#d55e00,#d55e00,,-0.2,0.1,#cc79a7,#cc79a7,,AVAJTAKT73XOO,001,2020-12-11_19h38.49.130,change-localization,2020.1.2,MacIntel,60,,,0,18,18,18,1,,
,,-0.098129883,0.000942383,1,0,0,0.81511,probe5,"[-0.1,0]",,,,,,20,probe4,0.05,0.05,0.2,0,#56b4e9,#56b4e9,,-0.1,0.2,#009e73,#009e73,,-0.2,-0.2,#e69f00,#e69f00,,0,-0.1,#f0e442,#cc79a7,,-0.1,0,#4A4A4A,#4A4A4A,,AVAJTAKT73XOO,001,2020-12-11_19h38.49.130,change-localization,2020.1.2,MacIntel,60,,,0,19,19,19,1,,
,,0.220483398,0.015205078,1,0,0,0.93045,probe3,"[0.2,0]",,,,,,21,probe3,0.05,0.05,-0.1,0.1,#0072b2,#0072b2,,-0.1,0.2,#009e73,#009e73,,0.2,0,#56b4e9,#4A4A4A,,-0.2,0.2,#f0e442,#f0e442,,0.2,0.1,#d55e00,#d55e00,,AVAJTAKT73XOO,001,2020-12-11_19h38.49.130,change-localization,2020.1.2,MacIntel,60,,,0,20,20,20,1,,
,,-0.192832031,-0.10621582,1,0,0,0.96369,probe4,"[-0.2,-0.1]",,,,,,22,probe4,0.05,0.05,0.2,-0.1,#d55e00,#d55e00,,0.2,0,#56b4e9,#56b4e9,,0.1,-0.2,#cc79a7,#cc79a7,,-0.2,-0.1,#4A4A4A,#009e73,,0,-0.2,#e69f00,#e69f00,,AVAJTAKT73XOO,001,2020-12-11_19h38.49.130,change-localization,2020.1.2,MacIntel,60,,,0,21,21,21,1,,
,,-0.191103516,-0.17090332,0,0,1,1.098735,probe4,"[-0.2,-0.2]",,,,,,23,probe4,0.05,0.05,0.1,0.1,#56b4e9,#56b4e9,,-0.2,-0.1,#0072b2,#0072b2,,0.2,0,#d55e00,#d55e00,,-0.2,-0.2,#cc79a7,#009e73,,0.1,-0.2,#4A4A4A,#4A4A4A,,AVAJTAKT73XOO,001,2020-12-11_19h38.49.130,change-localization,2020.1.2,MacIntel,60,,,0,22,22,22,1,,
,,-0.113999023,-0.209165039,1,0,1,0.96433,probe1,"[-0.1,-0.2]",,,,,,24,probe2,0.05,0.05,-0.1,-0.2,#4A4A4A,#4A4A4A,,0.2,0.2,#d55e00,#e69f00,,0.1,-0.1,#f0e442,#f0e442,,0.1,0.1,#56b4e9,#56b4e9,,-0.2,0.1,#cc79a7,#cc79a7,,AVAJTAKT73XOO,001,2020-12-11_19h38.49.130,change-localization,2020.1.2,MacIntel,60,,,0,23,23,23,1,,
,,0.206992188,0.003842773,1,0,1,1.081715,probe3,"[0.2,0]",,,,,,25,probe3,0.05,0.05,-0.2,-0.2,#f0e442,#f0e442,,-0.1,-0.1,#4A4A4A,#4A4A4A,,0.2,0,#d55e00,#cc79a7,,0,0.2,#0072b2,#0072b2,,-0.2,0.1,#009e73,#009e73,,AVAJTAKT73XOO,001,2020-12-11_19h38.49.130,change-localization,2020.1.2,MacIntel,60,,,0,24,24,24,1,,
,,-0.086767578,-0.201748047,1,0,1,1.13047,probe3,"[-0.1,-0.2]",,,,,,26,probe3,0.05,0.05,0.1,-0.1,#e69f00,#e69f00,,-0.2,0,#56b4e9,#56b4e9,,-0.1,-0.2,#009e73,#d55e00,,-0.2,-0.1,#4A4A4A,#4A4A4A,,0.1,0,#cc79a7,#cc79a7,,AVAJTAKT73XOO,001,2020-12-11_19h38.49.130,change-localization,2020.1.2,MacIntel,60,,,0,25,25,25,1,,
,,0.212612305,0.004462891,1,0,1,1.778375,probe2,"[0.2,0]",,,,,,27,probe5,0.05,0.05,-0.1,-0.2,#009e73,#009e73,,0.2,0,#cc79a7,#cc79a7,,-0.1,-0.1,#e69f00,#e69f00,,0.1,0.1,#d55e00,#d55e00,,-0.2,-0.1,#4A4A4A,#0072b2,,AVAJTAKT73XOO,001,2020-12-11_19h38.49.130,change-localization,2020.1.2,MacIntel,60,,,0,26,26,26,1,,
,,0.095771484,0.110253906,1,0,1,0.781375,probe5,"[0.1,0.1]",,,,,,28,probe5,0.05,0.05,-0.1,0.2,#009e73,#009e73,,-0.2,0.1,#56b4e9,#56b4e9,,0,-0.2,#d55e00,#d55e00,,0.1,0,#0072b2,#0072b2,,0.1,0.1,#f0e442,#e69f00,,AVAJTAKT73XOO,001,2020-12-11_19h38.49.130,change-localization,2020.1.2,MacIntel,60,,,0,27,27,27,1,,
,,-0.182280273,0.185517578,1,0,1,1.860805,probe2,"[-0.2,0.2]",,,,,,29,probe1,0.05,0.05,0.1,-0.1,#4A4A4A,#56b4e9,,-0.2,0.2,#e69f00,#e69f00,,-0.1,-0.1,#f0e442,#f0e442,,0.1,0.2,#0072b2,#0072b2,,-0.1,-0.2,#cc79a7,#cc79a7,,AVAJTAKT73XOO,001,2020-12-11_19h38.49.130,change-localization,2020.1.2,MacIntel,60,,,0,28,28,28,1,,
,,-0.099873047,-0.219433594,1,0,1,0.93142,probe2,"[-0.1,-0.2]",,,,,,30,probe2,0.05,0.05,0.1,0.2,#f0e442,#f0e442,,-0.1,-0.2,#d55e00,#4A4A4A,,0,-0.2,#cc79a7,#cc79a7,,0.1,-0.2,#0072b2,#0072b2,,-0.2,0,#009e73,#009e73,,AVAJTAKT73XOO,001,2020-12-11_19h38.49.130,change-localization,2020.1.2,MacIntel,60,,,0,29,29,29,1,,
,,-0.103413086,-0.096337891,1,0,1,2.14459,probe5,"[-0.1,-0.1]",,,,,,31,probe5,0.05,0.05,0,-0.2,#d55e00,#d55e00,,0.1,0,#e69f00,#e69f00,,0.1,0.2,#f0e442,#f0e442,,-0.2,-0.1,#cc79a7,#cc79a7,,-0.1,-0.1,#009e73,#4A4A4A,,AVAJTAKT73XOO,001,2020-12-11_19h38.49.130,change-localization,2020.1.2,MacIntel,60,,,0,30,30,30,1,,
,,-0.093305664,-0.122412109,1,0,1,0.91423,probe2,"[-0.1,-0.1]",,,,,,32,probe3,0.05,0.05,0.2,0.2,#56b4e9,#56b4e9,,-0.1,-0.1,#009e73,#009e73,,0.2,0.1,#cc79a7,#0072b2,,-0.2,0.1,#4A4A4A,#4A4A4A,,-0.2,-0.1,#f0e442,#f0e442,,AVAJTAKT73XOO,001,2020-12-11_19h38.49.130,change-localization,2020.1.2,MacIntel,60,,,0,31,31,31,1,,
,,-0.090463867,-0.110756836,1,0,1,0.8474,probe1,"[-0.1,-0.1]",,,,,,33,probe3,0.05,0.05,-0.1,-0.1,#0072b2,#0072b2,,0.1,0.1,#cc79a7,#cc79a7,,-0.1,0.1,#f0e442,#009e73,,0,-0.2,#56b4e9,#56b4e9,,0.1,0.2,#e69f00,#e69f00,,AVAJTAKT73XOO,001,2020-12-11_19h38.49.130,change-localization,2020.1.2,MacIntel,60,,,0,32,32,32,1,,
,,0.215310733,-0.210167609,1,0,1,1.28033,probe4,"[0.2,-0.2]",,,,,,34,probe5,0.05,0.05,0.2,0.1,#e69f00,#e69f00,,-0.2,0.1,#cc79a7,#cc79a7,,0.1,-0.2,#0072b2,#0072b2,,0.2,-0.2,#d55e00,#d55e00,,-0.2,0,#56b4e9,#009e73,,AVAJTAKT73XOO,001,2020-12-11_19h38.49.130,change-localization,2020.1.2,MacIntel,60,,,0,33,33,33,1,,
,,0.201130856,-0.102395497,1,0,1,1.08068,probe2,"[0.2,-0.1]",,,,,,35,probe2,0.05,0.05,0.2,0,#56b4e9,#56b4e9,,0.2,-0.1,#e69f00,#009e73,,0.1,-0.1,#f0e442,#f0e442,,0,0.2,#d55e00,#d55e00,,0.1,0.2,#cc79a7,#cc79a7,,AVAJTAKT73XOO,001,2020-12-11_19h38.49.130,change-localization,2020.1.2,MacIntel,60,,,0,34,34,34,1,,
,,-0.000959208,0.105159532,1,0,1,0.89795,probe1,"[0,0.1]",,,,,,36,probe3,0.05,0.05,0,0.1,#4A4A4A,#4A4A4A,,0.2,0.1,#009e73,#009e73,,-0.2,-0.1,#f0e442,#56b4e9,,-0.1,-0.1,#e69f00,#e69f00,,0.1,0,#0072b2,#0072b2,,AVAJTAKT73XOO,001,2020-12-11_19h38.49.130,change-localization,2020.1.2,MacIntel,60,,,0,35,35,35,1,,
,,0.103455674,-0.006354756,1,0,1,1.079385,probe5,"[0.1,0]",,,,,,37,probe5,0.05,0.05,-0.2,0.1,#e69f00,#e69f00,,0.1,0.1,#0072b2,#0072b2,,-0.2,0,#d55e00,#d55e00,,-0.1,0.2,#cc79a7,#cc79a7,,0.1,0,#009e73,#f0e442,,AVAJTAKT73XOO,001,2020-12-11_19h38.49.130,change-localization,2020.1.2,MacIntel,60,,,0,36,36,36,1,,
,,0.0985208,0.005054776,1,0,1,0.747745,probe4,"[0.1,0]",,,,,,38,probe4,0.05,0.05,0.2,-0.2,#4A4A4A,#4A4A4A,,0.2,0,#0072b2,#0072b2,,0.1,-0.1,#e69f00,#e69f00,,0.1,0,#d55e00,#cc79a7,,0,-0.1,#009e73,#009e73,,AVAJTAKT73XOO,001,2020-12-11_19h38.49.130,change-localization,2020.1.2,MacIntel,60,,,0,37,37,37,1,,
,,-0.193551848,0.1983542,1,0,1,0.897955,probe4,"[-0.2,0.2]",,,,,,39,probe4,0.05,0.05,0.1,-0.1,#e69f00,#e69f00,,-0.2,-0.1,#cc79a7,#cc79a7,,0.2,0.1,#d55e00,#d55e00,,-0.2,0.2,#56b4e9,#f0e442,,0,-0.1,#0072b2,#0072b2,,AVAJTAKT73XOO,001,2020-12-11_19h38.49.130,change-localization,2020.1.2,MacIntel,60,,,0,38,38,38,1,,
,,-0.190478595,0.098653322,1,0,1,0.93085,probe1,"[-0.2,0.1]",,,,,,40,probe1,0.05,0.05,-0.2,0.1,#4A4A4A,#d55e00,,0.2,0.2,#009e73,#009e73,,-0.1,-0.1,#cc79a7,#cc79a7,,0.2,-0.2,#e69f00,#e69f00,,0.1,-0.1,#56b4e9,#56b4e9,,AVAJTAKT73XOO,001,2020-12-11_19h38.49.130,change-localization,2020.1.2,MacIntel,60,,,0,39,39,39,1,,
,,-0.090733542,-0.018578352,1,0,1,0.91495,probe4,"[-0.1,0]",,,,,,41,probe4,0.05,0.05,0.2,0.1,#009e73,#009e73,,-0.2,-0.1,#0072b2,#0072b2,,-0.2,-0.2,#56b4e9,#56b4e9,,-0.1,0,#f0e442,#cc79a7,,0,-0.2,#d55e00,#d55e00,,AVAJTAKT73XOO,001,2020-12-11_19h38.49.130,change-localization,2020.1.2,MacIntel,60,,,0,40,40,40,1,,
,,-0.106005149,-0.205541953,1,0,1,1.18051,probe1,"[-0.1,-0.2]",,,,,,42,probe4,0.05,0.05,-0.1,-0.2,#009e73,#009e73,,-0.1,0.1,#cc79a7,#cc79a7,,0.1,0.1,#56b4e9,#56b4e9,,0,-0.2,#e69f00,#d55e00,,-0.1,0,#0072b2,#0072b2,,AVAJTAKT73XOO,001,2020-12-11_19h38.49.130,change-localization,2020.1.2,MacIntel,60,,,0,41,41,41,1,,
,,-0.203522567,0.112725919,1,0,1,1.246075,probe5,"[-0.2,0.1]",,,,,,43,probe1,0.05,0.05,0.2,-0.1,#e69f00,#009e73,,0.1,0,#cc79a7,#cc79a7,,-0.2,-0.2,#f0e442,#f0e442,,0.2,-0.2,#56b4e9,#56b4e9,,-0.2,0.1,#4A4A4A,#4A4A4A,,AVAJTAKT73XOO,001,2020-12-11_19h38.49.130,change-localization,2020.1.2,MacIntel,60,,,0,42,42,42,1,,
,,-0.095346577,0.197249849,1,0,1,0.764535,probe1,"[-0.1,0.2]",,,,,,44,probe1,0.05,0.05,-0.1,0.2,#56b4e9,#e69f00,,0.2,0.1,#4A4A4A,#4A4A4A,,0.1,0,#cc79a7,#cc79a7,,0.1,0.2,#f0e442,#f0e442,,-0.1,-0.1,#d55e00,#d55e00,,AVAJTAKT73XOO,001,2020-12-11_19h38.49.130,change-localization,2020.1.2,MacIntel,60,,,0,43,43,43,1,,
,,-0.097025192,0.18446461,1,0,1,1.41337,probe4,"[-0.1,0.2]",,,,,,45,probe3,0.05,0.05,-0.2,0.2,#0072b2,#0072b2,,-0.2,-0.1,#56b4e9,#56b4e9,,-0.1,0.1,#f0e442,#e69f00,,-0.1,0.2,#d55e00,#d55e00,,0,-0.2,#cc79a7,#cc79a7,,AVAJTAKT73XOO,001,2020-12-11_19h38.49.130,change-localization,2020.1.2,MacIntel,60,,,0,44,44,44,1,,
,,0.206135147,0.003603342,1,0,1,0.84694,probe5,"[0.2,0]",,,,,,46,probe5,0.05,0.05,0.2,0.1,#0072b2,#0072b2,,0.1,0.2,#f0e442,#f0e442,,0.2,-0.2,#009e73,#009e73,,0.2,0.2,#4A4A4A,#4A4A4A,,0.2,0,#cc79a7,#e69f00,,AVAJTAKT73XOO,001,2020-12-11_19h38.49.130,change-localization,2020.1.2,MacIntel,60,,,0,45,45,45,1,,
,,0.202064822,0.197577999,1,0,1,1.06414,probe3,"[0.2,0.2]",,,,,,47,probe3,0.05,0.05,0,-0.1,#009e73,#009e73,,-0.2,0.2,#f0e442,#f0e442,,0.2,0.2,#56b4e9,#cc79a7,,-0.1,0.2,#4A4A4A,#4A4A4A,,-0.1,0.1,#e69f00,#e69f00,,AVAJTAKT73XOO,001,2020-12-11_19h38.49.130,change-localization,2020.1.2,MacIntel,60,,,0,46,46,46,1,,
,,-0.18609274,-0.105847385,1,0,1,0.964545,probe4,"[-0.2,-0.1]",,,,,,48,probe4,0.05,0.05,0.2,-0.2,#cc79a7,#cc79a7,,-0.1,0.1,#009e73,#009e73,,0.1,-0.2,#f0e442,#f0e442,,-0.2,-0.1,#d55e00,#0072b2,,-0.1,0,#56b4e9,#56b4e9,,AVAJTAKT73XOO,001,2020-12-11_19h38.49.130,change-localization,2020.1.2,MacIntel,60,,,0,47,47,47,1,,
,,-0.180394285,-0.004821284,1,0,1,0.74714,probe2,"[-0.2,0]",,,,,,49,probe2,0.05,0.05,0,-0.2,#e69f00,#e69f00,,-0.2,0,#cc79a7,#0072b2,,-0.1,0.2,#f0e442,#f0e442,,0.1,0.2,#4A4A4A,#4A4A4A,,-0.1,-0.1,#56b4e9,#56b4e9,,AVAJTAKT73XOO,001,2020-12-11_19h38.49.130,change-localization,2020.1.2,MacIntel,60,,,0,48,48,48,1,,
,,-0.095302403,0.004076636,1,0,1,0.73023,probe4,"[-0.1,0]",,,,,,50,probe4,0.05,0.05,0.2,0.1,#0072b2,#0072b2,,0.1,0.1,#cc79a7,#cc79a7,,0.1,-0.2,#56b4e9,#56b4e9,,-0.1,0,#009e73,#e69f00,,0,0.1,#d55e00,#d55e00,,AVAJTAKT73XOO,001,2020-12-11_19h38.49.130,change-localization,2020.1.2,MacIntel,60,,,0,49,49,49,1,,
,,,,,,,,,,,,,,,,,,,,,,,,,,,,,,,,,,,,,,,,,,,,AVAJTAKT73XOO,001,2020-12-11_19h38.49.130,change-localization,2020.1.2,MacIntel,60,,,,,,,,c,3.808775
