key_resp.keys,key_resp.rt,mouse.x,mouse.y,mouse.leftButton,mouse.midButton,mouse.rightButton,mouse.time,mouse.clicked_name,mouse.clicked_pos,training.thisRepN,training.thisTrialN,training.thisN,training.thisIndex,training.ran,trial,answer,height,width,x1,y1,stim_color1,probe_color1,copy_color1,x2,y2,stim_color2,probe_color2,copy_color2,x3,y3,stim_color3,probe_color3,copy_color3,x4,y4,stim_color4,probe_color4,copy_color4,x5,y5,stim_color5,probe_color5,copy_color5,participant,session,date,expName,psychopyVersion,OS,frameRate,key_resp_2.keys,key_resp_2.rt,trials.thisRepN,trials.thisTrialN,trials.thisN,trials.thisIndex,trials.ran,completion_keys.keys,completion_keys.rt
c,19.79018,0.209259292,-0.10185187,1,0,0,2.683635,probe4,"[0.2,-0.1]",0,0,0,0,1,1,probe4,0.05,0.05,0.1,0.2,#0072b2,#0072b2,#0072b2,0.1,-0.1,#e69f00,#e69f00,#e69f00,-0.1,-0.2,#cc79a7,#cc79a7,#cc79a7,0.2,-0.1,#4A4A4A,#f0e442,#FFFFFF,0.2,0,#009e73,#009e73,#009e73,AYR486J4XCS8U,001,2020-12-12_22h17.19.441,change-localization,2020.1.2,Win32,60,,,,,,,,,
,,-0.093518495,0.0907407,1,0,0,2.300045,probe4,"[-0.1,0.1]",0,1,1,1,1,2,probe1,0.05,0.05,0.2,0,#d55e00,#009e73,#FFFFFF,0.2,-0.1,#e69f00,#e69f00,#e69f00,0.1,0,#4A4A4A,#4A4A4A,#4A4A4A,-0.1,0.1,#56b4e9,#56b4e9,#56b4e9,-0.1,0,#cc79a7,#cc79a7,#cc79a7,AYR486J4XCS8U,001,2020-12-12_22h17.19.441,change-localization,2020.1.2,Win32,60,,,,,,,,,
,,0.191666699,-0.105092611,1,0,0,1.767455,probe2,"[0.2,-0.1]",0,2,2,2,1,3,probe1,0.05,0.05,-0.2,-0.2,#f0e442,#009e73,#FFFFFF,0.2,-0.1,#d55e00,#d55e00,#d55e00,-0.2,0,#4A4A4A,#4A4A4A,#4A4A4A,-0.1,-0.1,#0072b2,#0072b2,#0072b2,0,-0.1,#56b4e9,#56b4e9,#56b4e9,AYR486J4XCS8U,001,2020-12-12_22h17.19.441,change-localization,2020.1.2,Win32,60,,,,,,,,,
,,0.195833366,-0.199074095,1,0,0,1.749635,probe3,"[0.2,-0.2]",0,3,3,3,1,4,probe1,0.05,0.05,0.2,0.2,#d55e00,#56b4e9,#FFFFFF,-0.2,0.2,#f0e442,#f0e442,#f0e442,0.2,-0.2,#0072b2,#0072b2,#0072b2,-0.2,0,#cc79a7,#cc79a7,#cc79a7,-0.2,0.1,#4A4A4A,#4A4A4A,#4A4A4A,AYR486J4XCS8U,001,2020-12-12_22h17.19.441,change-localization,2020.1.2,Win32,60,,,,,,,,,
,,-0.006944418,0.093055543,1,0,0,1.16671,probe3,"[0,0.1]",0,4,4,4,1,5,probe3,0.05,0.05,-0.2,0.1,#56b4e9,#56b4e9,#56b4e9,0,0.2,#009e73,#009e73,#009e73,0,0.1,#0072b2,#cc79a7,#FFFFFF,-0.1,-0.1,#4A4A4A,#4A4A4A,#4A4A4A,0.2,0,#f0e442,#f0e442,#f0e442,AYR486J4XCS8U,001,2020-12-12_22h17.19.441,change-localization,2020.1.2,Win32,60,,,,,,,,,
,,-0.209722202,0.001388874,1,0,0,1.583325,probe3,"[-0.2,0]",0,5,5,5,1,6,probe5,0.05,0.05,-0.1,0.1,#f0e442,#f0e442,#f0e442,0,0.1,#009e73,#009e73,#009e73,-0.2,0,#4A4A4A,#4A4A4A,#4A4A4A,0,-0.2,#d55e00,#d55e00,#d55e00,0.1,0,#cc79a7,#0072b2,#FFFFFF,AYR486J4XCS8U,001,2020-12-12_22h17.19.441,change-localization,2020.1.2,Win32,60,,,,,,,,,
,,-0.181944423,0.194444435,1,0,0,1.099725,probe4,"[-0.2,0.2]",0,6,6,6,1,7,probe2,0.05,0.05,-0.2,-0.2,#4A4A4A,#4A4A4A,#4A4A4A,0.1,0.2,#0072b2,#d55e00,#FFFFFF,-0.1,-0.2,#f0e442,#f0e442,#f0e442,-0.2,0.2,#009e73,#009e73,#009e73,0.2,0.2,#e69f00,#e69f00,#e69f00,AYR486J4XCS8U,001,2020-12-12_22h17.19.441,change-localization,2020.1.2,Win32,60,,,,,,,,,
,,0.102777807,-0.194907428,1,0,0,1.199835,probe1,"[0.1,-0.2]",0,7,7,7,1,8,probe1,0.05,0.05,0.1,-0.2,#009e73,#f0e442,#FFFFFF,-0.1,0,#d55e00,#d55e00,#d55e00,-0.1,0.1,#4A4A4A,#4A4A4A,#4A4A4A,-0.2,0,#cc79a7,#cc79a7,#cc79a7,0.2,0,#e69f00,#e69f00,#e69f00,AYR486J4XCS8U,001,2020-12-12_22h17.19.441,change-localization,2020.1.2,Win32,60,,,,,,,,,
,,0.098611141,-0.194444465,1,0,0,1.899795,probe1,"[0.1,-0.2]",0,8,8,8,1,9,probe1,0.05,0.05,0.1,-0.2,#0072b2,#e69f00,#FFFFFF,-0.1,0.2,#f0e442,#f0e442,#f0e442,-0.2,0.1,#d55e00,#d55e00,#d55e00,0.2,0.2,#cc79a7,#cc79a7,#cc79a7,0.1,0.1,#56b4e9,#56b4e9,#56b4e9,AYR486J4XCS8U,001,2020-12-12_22h17.19.441,change-localization,2020.1.2,Win32,60,,,,,,,,,
,,0.196296329,-0.200925947,1,0,0,2.71651,probe3,"[0.2,-0.2]",0,9,9,9,1,10,probe1,0.05,0.05,-0.1,-0.1,#4A4A4A,#f0e442,#FFFFFF,0,0.2,#cc79a7,#cc79a7,#cc79a7,0.2,-0.2,#e69f00,#e69f00,#e69f00,0.1,-0.2,#009e73,#009e73,#009e73,0.1,0.1,#d55e00,#d55e00,#d55e00,AYR486J4XCS8U,001,2020-12-12_22h17.19.441,change-localization,2020.1.2,Win32,60,,,,,,,,,
,,-0.09583331,0.188425917,1,0,0,2.532755,probe2,"[-0.1,0.2]",,,,,,1,probe2,0.05,0.05,-0.2,0.2,#009e73,#009e73,,-0.1,0.2,#f0e442,#e69f00,,-0.1,0,#0072b2,#0072b2,,0,-0.2,#cc79a7,#cc79a7,,0,0.2,#d55e00,#d55e00,,AYR486J4XCS8U,001,2020-12-12_22h17.19.441,change-localization,2020.1.2,Win32,60,c,8.268915,0,0,0,0,1,,
,,0.002777804,-0.099074092,1,0,0,1.258455,probe5,"[0,-0.1]",,,,,,2,probe5,0.05,0.05,0,0.1,#009e73,#009e73,,0.2,0.1,#4A4A4A,#4A4A4A,,-0.1,-0.1,#cc79a7,#cc79a7,,0.1,0.1,#d55e00,#d55e00,,0,-0.1,#56b4e9,#e69f00,,AYR486J4XCS8U,001,2020-12-12_22h17.19.441,change-localization,2020.1.2,Win32,60,,,0,1,1,1,1,,
,,-0.094907384,0.111574034,1,0,0,1.216975,probe4,"[-0.1,0.1]",,,,,,3,probe4,0.05,0.05,0.1,-0.1,#56b4e9,#56b4e9,,0.2,0,#f0e442,#f0e442,,0.2,-0.1,#e69f00,#e69f00,,-0.1,0.1,#4A4A4A,#009e73,,-0.1,0.2,#d55e00,#d55e00,,AYR486J4XCS8U,001,2020-12-12_22h17.19.441,change-localization,2020.1.2,Win32,60,,,0,2,2,2,1,,
,,-0.195833313,-0.001851867,1,0,0,1.3001,probe5,"[-0.2,0]",,,,,,4,probe5,0.05,0.05,0.2,0,#56b4e9,#56b4e9,,-0.2,-0.2,#cc79a7,#cc79a7,,0,0.2,#4A4A4A,#4A4A4A,,0.2,-0.2,#e69f00,#e69f00,,-0.2,0,#f0e442,#009e73,,AYR486J4XCS8U,001,2020-12-12_22h17.19.441,change-localization,2020.1.2,Win32,60,,,0,3,3,3,1,,
,,-0.102314735,-0.09259261,1,0,0,1.43334,probe3,"[-0.1,-0.1]",,,,,,5,probe3,0.05,0.05,-0.2,0.1,#4A4A4A,#4A4A4A,,0.2,0.2,#009e73,#009e73,,-0.1,-0.1,#0072b2,#f0e442,,0.2,0,#cc79a7,#cc79a7,,0.1,0.1,#e69f00,#e69f00,,AYR486J4XCS8U,001,2020-12-12_22h17.19.441,change-localization,2020.1.2,Win32,60,,,0,4,4,4,1,,
,,-0.00416664,0.200925917,1,0,0,1.57726,probe4,"[0,0.2]",,,,,,6,probe4,0.05,0.05,-0.1,0.1,#d55e00,#d55e00,,-0.2,0.2,#0072b2,#0072b2,,0,-0.1,#e69f00,#e69f00,,0,0.2,#56b4e9,#4A4A4A,,-0.2,-0.2,#009e73,#009e73,,AYR486J4XCS8U,001,2020-12-12_22h17.19.441,change-localization,2020.1.2,Win32,60,,,0,5,5,5,1,,
,,0.200000032,0.19675925,1,0,0,2.41589,probe4,"[0.2,0.2]",,,,,,7,probe4,0.05,0.05,0.2,-0.1,#56b4e9,#56b4e9,,-0.1,-0.1,#e69f00,#e69f00,,-0.2,0.2,#009e73,#009e73,,0.2,0.2,#cc79a7,#4A4A4A,,0.2,-0.2,#d55e00,#d55e00,,AYR486J4XCS8U,001,2020-12-12_22h17.19.441,change-localization,2020.1.2,Win32,60,,,0,6,6,6,1,,
,,0.188888921,0.102777766,1,0,0,2.58267,probe3,"[0.2,0.1]",,,,,,8,probe4,0.05,0.05,-0.2,0.1,#e69f00,#e69f00,,0.1,0.2,#cc79a7,#cc79a7,,0.2,0.1,#4A4A4A,#4A4A4A,,-0.2,0.2,#56b4e9,#d55e00,,0.2,-0.1,#0072b2,#0072b2,,AYR486J4XCS8U,001,2020-12-12_22h17.19.441,change-localization,2020.1.2,Win32,60,,,0,7,7,7,1,,
,,0.195370403,0.095370358,1,0,0,1.93348,probe4,"[0.2,0.1]",,,,,,9,probe5,0.05,0.05,-0.1,0,#4A4A4A,#4A4A4A,,0.1,0.1,#56b4e9,#56b4e9,,-0.2,0.1,#009e73,#009e73,,0.2,0.1,#cc79a7,#cc79a7,,0.2,0.2,#d55e00,#f0e442,,AYR486J4XCS8U,001,2020-12-12_22h17.19.441,change-localization,2020.1.2,Win32,60,,,0,8,8,8,1,,
,,-0.002314732,0.100462923,1,0,0,2.200165,probe3,"[0,0.1]",,,,,,10,probe3,0.05,0.05,0.2,0.2,#f0e442,#f0e442,,0.1,-0.1,#e69f00,#e69f00,,0,0.1,#cc79a7,#4A4A4A,,-0.2,0.1,#56b4e9,#56b4e9,,0.2,0,#0072b2,#0072b2,,AYR486J4XCS8U,001,2020-12-12_22h17.19.441,change-localization,2020.1.2,Win32,60,,,0,9,9,9,1,,
,,0.093518548,-0.195833354,1,0,0,1.20007,probe5,"[0.1,-0.2]",,,,,,11,probe5,0.05,0.05,0.2,0.2,#4A4A4A,#4A4A4A,,0.1,0.2,#0072b2,#0072b2,,0.1,-0.1,#cc79a7,#cc79a7,,0,-0.2,#009e73,#009e73,,0.1,-0.2,#f0e442,#d55e00,,AYR486J4XCS8U,001,2020-12-12_22h17.19.441,change-localization,2020.1.2,Win32,60,,,0,10,10,10,1,,
,,-0.091666643,-0.006481497,1,0,0,2.983195,probe2,"[-0.1,0]",,,,,,12,probe4,0.05,0.05,-0.1,-0.1,#009e73,#009e73,,-0.1,0,#56b4e9,#56b4e9,,-0.1,-0.2,#0072b2,#0072b2,,0.1,0,#d55e00,#f0e442,,0,-0.1,#cc79a7,#cc79a7,,AYR486J4XCS8U,001,2020-12-12_22h17.19.441,change-localization,2020.1.2,Win32,60,,,0,11,11,11,1,,
,,-0.196759239,0.208796288,1,0,0,1.47733,probe4,"[-0.2,0.2]",,,,,,13,probe4,0.05,0.05,0,-0.1,#f0e442,#f0e442,,0.1,-0.1,#d55e00,#d55e00,,0.1,0.1,#0072b2,#0072b2,,-0.2,0.2,#cc79a7,#4A4A4A,,0.1,0.2,#009e73,#009e73,,AYR486J4XCS8U,001,2020-12-12_22h17.19.441,change-localization,2020.1.2,Win32,60,,,0,12,12,12,1,,
,,-0.004629603,-0.102314833,1,0,0,1.383035,probe2,"[0,-0.1]",,,,,,14,probe5,0.05,0.05,0,0.2,#cc79a7,#cc79a7,,0,-0.1,#4A4A4A,#4A4A4A,,-0.2,0,#56b4e9,#56b4e9,,0.1,0.1,#0072b2,#0072b2,,0.1,0.2,#009e73,#e69f00,,AYR486J4XCS8U,001,2020-12-12_22h17.19.441,change-localization,2020.1.2,Win32,60,,,0,13,13,13,1,,
,,0.20277781,0.106018479,1,0,0,1.383585,probe3,"[0.2,0.1]",,,,,,15,probe3,0.05,0.05,0.2,0.2,#cc79a7,#cc79a7,,0,0.2,#56b4e9,#56b4e9,,0.2,0.1,#d55e00,#4A4A4A,,0.1,-0.1,#f0e442,#f0e442,,0.2,-0.1,#0072b2,#0072b2,,AYR486J4XCS8U,001,2020-12-12_22h17.19.441,change-localization,2020.1.2,Win32,60,,,0,14,14,14,1,,
,,0.100462992,0.103703692,1,0,0,1.400035,probe3,"[0.1,0.1]",,,,,,16,probe3,0.05,0.05,-0.2,-0.1,#f0e442,#f0e442,,-0.2,0.2,#d55e00,#d55e00,,0.1,0.1,#009e73,#4A4A4A,,-0.2,0.1,#56b4e9,#56b4e9,,0,-0.1,#cc79a7,#cc79a7,,AYR486J4XCS8U,001,2020-12-12_22h17.19.441,change-localization,2020.1.2,Win32,60,,,0,15,15,15,1,,
,,-0.001851825,0.097685145,1,0,0,1.376315,probe3,"[0,0.1]",,,,,,17,probe3,0.05,0.05,0.2,-0.1,#cc79a7,#cc79a7,,0,-0.2,#0072b2,#0072b2,,0,0.1,#4A4A4A,#e69f00,,-0.2,-0.1,#f0e442,#f0e442,,-0.1,-0.1,#009e73,#009e73,,AYR486J4XCS8U,001,2020-12-12_22h17.19.441,change-localization,2020.1.2,Win32,60,,,0,16,16,16,1,,
,,0.098611141,-0.1064815,1,0,0,1.516435,probe4,"[0.1,-0.1]",,,,,,18,probe3,0.05,0.05,-0.1,0.1,#d55e00,#d55e00,,-0.1,0.2,#e69f00,#e69f00,,0.2,0,#009e73,#0072b2,,0.1,-0.1,#cc79a7,#cc79a7,,-0.2,0.2,#4A4A4A,#4A4A4A,,AYR486J4XCS8U,001,2020-12-12_22h17.19.441,change-localization,2020.1.2,Win32,60,,,0,17,17,17,1,,
,,-0.101388865,0.099999988,1,0,0,2.516575,probe3,"[-0.1,0.1]",,,,,,19,probe3,0.05,0.05,-0.1,0.2,#0072b2,#0072b2,,0,-0.1,#4A4A4A,#4A4A4A,,-0.1,0.1,#e69f00,#009e73,,0.2,0.1,#d55e00,#d55e00,,-0.2,0.1,#cc79a7,#cc79a7,,AYR486J4XCS8U,001,2020-12-12_22h17.19.441,change-localization,2020.1.2,Win32,60,,,0,18,18,18,1,,
,,-0.005555529,-0.095833351,1,0,0,1.200055,probe4,"[0,-0.1]",,,,,,20,probe4,0.05,0.05,0.2,0,#56b4e9,#56b4e9,,-0.1,0.2,#009e73,#009e73,,-0.2,-0.2,#e69f00,#e69f00,,0,-0.1,#f0e442,#cc79a7,,-0.1,0,#4A4A4A,#4A4A4A,,AYR486J4XCS8U,001,2020-12-12_22h17.19.441,change-localization,2020.1.2,Win32,60,,,0,19,19,19,1,,
,,0.199074106,0.008333319,1,0,0,1.016545,probe3,"[0.2,0]",,,,,,21,probe3,0.05,0.05,-0.1,0.1,#0072b2,#0072b2,,-0.1,0.2,#009e73,#009e73,,0.2,0,#56b4e9,#4A4A4A,,-0.2,0.2,#f0e442,#f0e442,,0.2,0.1,#d55e00,#d55e00,,AYR486J4XCS8U,001,2020-12-12_22h17.19.441,change-localization,2020.1.2,Win32,60,,,0,20,20,20,1,,
,,-0.200462942,-0.094444462,1,0,0,1.266685,probe4,"[-0.2,-0.1]",,,,,,22,probe4,0.05,0.05,0.2,-0.1,#d55e00,#d55e00,,0.2,0,#56b4e9,#56b4e9,,0.1,-0.2,#cc79a7,#cc79a7,,-0.2,-0.1,#4A4A4A,#009e73,,0,-0.2,#e69f00,#e69f00,,AYR486J4XCS8U,001,2020-12-12_22h17.19.441,change-localization,2020.1.2,Win32,60,,,0,21,21,21,1,,
,,0.102777807,-0.199537058,1,0,0,1.43395,probe5,"[0.1,-0.2]",,,,,,23,probe4,0.05,0.05,0.1,0.1,#56b4e9,#56b4e9,,-0.2,-0.1,#0072b2,#0072b2,,0.2,0,#d55e00,#d55e00,,-0.2,-0.2,#cc79a7,#009e73,,0.1,-0.2,#4A4A4A,#4A4A4A,,AYR486J4XCS8U,001,2020-12-12_22h17.19.441,change-localization,2020.1.2,Win32,60,,,0,22,22,22,1,,
,,-0.201388868,0.089814803,1,0,0,2.89961,probe5,"[-0.2,0.1]",,,,,,24,probe2,0.05,0.05,-0.1,-0.2,#4A4A4A,#4A4A4A,,0.2,0.2,#d55e00,#e69f00,,0.1,-0.1,#f0e442,#f0e442,,0.1,0.1,#56b4e9,#56b4e9,,-0.2,0.1,#cc79a7,#cc79a7,,AYR486J4XCS8U,001,2020-12-12_22h17.19.441,change-localization,2020.1.2,Win32,60,,,0,23,23,23,1,,
,,0.196759292,0.001851837,1,0,0,1.10021,probe3,"[0.2,0]",,,,,,25,probe3,0.05,0.05,-0.2,-0.2,#f0e442,#f0e442,,-0.1,-0.1,#4A4A4A,#4A4A4A,,0.2,0,#d55e00,#cc79a7,,0,0.2,#0072b2,#0072b2,,-0.2,0.1,#009e73,#009e73,,AYR486J4XCS8U,001,2020-12-12_22h17.19.441,change-localization,2020.1.2,Win32,60,,,0,24,24,24,1,,
,,-0.104166643,-0.186111132,1,0,0,1.433145,probe3,"[-0.1,-0.2]",,,,,,26,probe3,0.05,0.05,0.1,-0.1,#e69f00,#e69f00,,-0.2,0,#56b4e9,#56b4e9,,-0.1,-0.2,#009e73,#d55e00,,-0.2,-0.1,#4A4A4A,#4A4A4A,,0.1,0,#cc79a7,#cc79a7,,AYR486J4XCS8U,001,2020-12-12_22h17.19.441,change-localization,2020.1.2,Win32,60,,,0,25,25,25,1,,
,,-0.192592572,-0.096296314,1,0,0,1.316005,probe5,"[-0.2,-0.1]",,,,,,27,probe5,0.05,0.05,-0.1,-0.2,#009e73,#009e73,,0.2,0,#cc79a7,#cc79a7,,-0.1,-0.1,#e69f00,#e69f00,,0.1,0.1,#d55e00,#d55e00,,-0.2,-0.1,#4A4A4A,#0072b2,,AYR486J4XCS8U,001,2020-12-12_22h17.19.441,change-localization,2020.1.2,Win32,60,,,0,26,26,26,1,,
,,0.001388915,-0.204629651,1,0,0,1.93352,probe3,"[0,-0.2]",,,,,,28,probe5,0.05,0.05,-0.1,0.2,#009e73,#009e73,,-0.2,0.1,#56b4e9,#56b4e9,,0,-0.2,#d55e00,#d55e00,,0.1,0,#0072b2,#0072b2,,0.1,0.1,#f0e442,#e69f00,,AYR486J4XCS8U,001,2020-12-12_22h17.19.441,change-localization,2020.1.2,Win32,60,,,0,27,27,27,1,,
,,0.098148178,-0.099074092,1,0,0,2.500105,probe1,"[0.1,-0.1]",,,,,,29,probe1,0.05,0.05,0.1,-0.1,#4A4A4A,#56b4e9,,-0.2,0.2,#e69f00,#e69f00,,-0.1,-0.1,#f0e442,#f0e442,,0.1,0.2,#0072b2,#0072b2,,-0.1,-0.2,#cc79a7,#cc79a7,,AYR486J4XCS8U,001,2020-12-12_22h17.19.441,change-localization,2020.1.2,Win32,60,,,0,28,28,28,1,,
,,-0.099074051,-0.198611132,1,0,0,1.64997,probe2,"[-0.1,-0.2]",,,,,,30,probe2,0.05,0.05,0.1,0.2,#f0e442,#f0e442,,-0.1,-0.2,#d55e00,#4A4A4A,,0,-0.2,#cc79a7,#cc79a7,,0.1,-0.2,#0072b2,#0072b2,,-0.2,0,#009e73,#009e73,,AYR486J4XCS8U,001,2020-12-12_22h17.19.441,change-localization,2020.1.2,Win32,60,,,0,29,29,29,1,,
,,0.005555582,-0.203703725,1,0,0,3.68335,probe1,"[0,-0.2]",,,,,,31,probe5,0.05,0.05,0,-0.2,#d55e00,#d55e00,,0.1,0,#e69f00,#e69f00,,0.1,0.2,#f0e442,#f0e442,,-0.2,-0.1,#cc79a7,#cc79a7,,-0.1,-0.1,#009e73,#4A4A4A,,AYR486J4XCS8U,001,2020-12-12_22h17.19.441,change-localization,2020.1.2,Win32,60,,,0,30,30,30,1,,
,,0.211574107,0.102314803,1,0,0,2.13325,probe3,"[0.2,0.1]",,,,,,32,probe3,0.05,0.05,0.2,0.2,#56b4e9,#56b4e9,,-0.1,-0.1,#009e73,#009e73,,0.2,0.1,#cc79a7,#0072b2,,-0.2,0.1,#4A4A4A,#4A4A4A,,-0.2,-0.1,#f0e442,#f0e442,,AYR486J4XCS8U,001,2020-12-12_22h17.19.441,change-localization,2020.1.2,Win32,60,,,0,31,31,31,1,,
,,-0.098148068,0.105092581,1,0,0,1.817025,probe3,"[-0.1,0.1]",,,,,,33,probe3,0.05,0.05,-0.1,-0.1,#0072b2,#0072b2,,0.1,0.1,#cc79a7,#cc79a7,,-0.1,0.1,#f0e442,#009e73,,0,-0.2,#56b4e9,#56b4e9,,0.1,0.2,#e69f00,#e69f00,,AYR486J4XCS8U,001,2020-12-12_22h17.19.441,change-localization,2020.1.2,Win32,60,,,0,32,32,32,1,,
,,-0.205555535,-0.011574089,1,0,0,3.98299,probe5,"[-0.2,0]",,,,,,34,probe5,0.05,0.05,0.2,0.1,#e69f00,#e69f00,,-0.2,0.1,#cc79a7,#cc79a7,,0.1,-0.2,#0072b2,#0072b2,,0.2,-0.2,#d55e00,#d55e00,,-0.2,0,#56b4e9,#009e73,,AYR486J4XCS8U,001,2020-12-12_22h17.19.441,change-localization,2020.1.2,Win32,60,,,0,33,33,33,1,,
,,0.196296329,-0.099074092,1,0,0,1.516785,probe2,"[0.2,-0.1]",,,,,,35,probe2,0.05,0.05,0.2,0,#56b4e9,#56b4e9,,0.2,-0.1,#e69f00,#009e73,,0.1,-0.1,#f0e442,#f0e442,,0,0.2,#d55e00,#d55e00,,0.1,0.2,#cc79a7,#cc79a7,,AYR486J4XCS8U,001,2020-12-12_22h17.19.441,change-localization,2020.1.2,Win32,60,,,0,34,34,34,1,,
,,-0.201851831,-0.098148166,1,0,0,1.299505,probe3,"[-0.2,-0.1]",,,,,,36,probe3,0.05,0.05,0,0.1,#4A4A4A,#4A4A4A,,0.2,0.1,#009e73,#009e73,,-0.2,-0.1,#f0e442,#56b4e9,,-0.1,-0.1,#e69f00,#e69f00,,0.1,0,#0072b2,#0072b2,,AYR486J4XCS8U,001,2020-12-12_22h17.19.441,change-localization,2020.1.2,Win32,60,,,0,35,35,35,1,,
,,0.098148178,0.004166652,1,0,0,1.24997,probe5,"[0.1,0]",,,,,,37,probe5,0.05,0.05,-0.2,0.1,#e69f00,#e69f00,,0.1,0.1,#0072b2,#0072b2,,-0.2,0,#d55e00,#d55e00,,-0.1,0.2,#cc79a7,#cc79a7,,0.1,0,#009e73,#f0e442,,AYR486J4XCS8U,001,2020-12-12_22h17.19.441,change-localization,2020.1.2,Win32,60,,,0,36,36,36,1,,
,,0.099074104,0.005555541,1,0,0,1.79994,probe4,"[0.1,0]",,,,,,38,probe4,0.05,0.05,0.2,-0.2,#4A4A4A,#4A4A4A,,0.2,0,#0072b2,#0072b2,,0.1,-0.1,#e69f00,#e69f00,,0.1,0,#d55e00,#cc79a7,,0,-0.1,#009e73,#009e73,,AYR486J4XCS8U,001,2020-12-12_22h17.19.441,change-localization,2020.1.2,Win32,60,,,0,37,37,37,1,,
,,-0.206944424,0.199537028,1,0,0,1.69991,probe4,"[-0.2,0.2]",,,,,,39,probe4,0.05,0.05,0.1,-0.1,#e69f00,#e69f00,,-0.2,-0.1,#cc79a7,#cc79a7,,0.2,0.1,#d55e00,#d55e00,,-0.2,0.2,#56b4e9,#f0e442,,0,-0.1,#0072b2,#0072b2,,AYR486J4XCS8U,001,2020-12-12_22h17.19.441,change-localization,2020.1.2,Win32,60,,,0,38,38,38,1,,
,,-0.20787035,0.099999988,1,0,0,1.44953,probe1,"[-0.2,0.1]",,,,,,40,probe1,0.05,0.05,-0.2,0.1,#4A4A4A,#d55e00,,0.2,0.2,#009e73,#009e73,,-0.1,-0.1,#cc79a7,#cc79a7,,0.2,-0.2,#e69f00,#e69f00,,0.1,-0.1,#56b4e9,#56b4e9,,AYR486J4XCS8U,001,2020-12-12_22h17.19.441,change-localization,2020.1.2,Win32,60,,,0,39,39,39,1,,
,,-0.09537029,-0.00231483,1,0,0,1.050275,probe4,"[-0.1,0]",,,,,,41,probe4,0.05,0.05,0.2,0.1,#009e73,#009e73,,-0.2,-0.1,#0072b2,#0072b2,,-0.2,-0.2,#56b4e9,#56b4e9,,-0.1,0,#f0e442,#cc79a7,,0,-0.2,#d55e00,#d55e00,,AYR486J4XCS8U,001,2020-12-12_22h17.19.441,change-localization,2020.1.2,Win32,60,,,0,40,40,40,1,,
,,-0.099999976,-0.197685206,1,0,0,2.383495,probe1,"[-0.1,-0.2]",,,,,,42,probe4,0.05,0.05,-0.1,-0.2,#009e73,#009e73,,-0.1,0.1,#cc79a7,#cc79a7,,0.1,0.1,#56b4e9,#56b4e9,,0,-0.2,#e69f00,#d55e00,,-0.1,0,#0072b2,#0072b2,,AYR486J4XCS8U,001,2020-12-12_22h17.19.441,change-localization,2020.1.2,Win32,60,,,0,41,41,41,1,,
,,0.196296329,-0.091666684,1,0,0,1.33346,probe1,"[0.2,-0.1]",,,,,,43,probe1,0.05,0.05,0.2,-0.1,#e69f00,#009e73,,0.1,0,#cc79a7,#cc79a7,,-0.2,-0.2,#f0e442,#f0e442,,0.2,-0.2,#56b4e9,#56b4e9,,-0.2,0.1,#4A4A4A,#4A4A4A,,AYR486J4XCS8U,001,2020-12-12_22h17.19.441,change-localization,2020.1.2,Win32,60,,,0,42,42,42,1,,
,,-0.106944421,0.202314806,1,0,0,1.30011,probe1,"[-0.1,0.2]",,,,,,44,probe1,0.05,0.05,-0.1,0.2,#56b4e9,#e69f00,,0.2,0.1,#4A4A4A,#4A4A4A,,0.1,0,#cc79a7,#cc79a7,,0.1,0.2,#f0e442,#f0e442,,-0.1,-0.1,#d55e00,#d55e00,,AYR486J4XCS8U,001,2020-12-12_22h17.19.441,change-localization,2020.1.2,Win32,60,,,0,43,43,43,1,,
,,-0.106481402,0.099999988,1,0,0,2.51665,probe3,"[-0.1,0.1]",,,,,,45,probe3,0.05,0.05,-0.2,0.2,#0072b2,#0072b2,,-0.2,-0.1,#56b4e9,#56b4e9,,-0.1,0.1,#f0e442,#e69f00,,-0.1,0.2,#d55e00,#d55e00,,0,-0.2,#cc79a7,#cc79a7,,AYR486J4XCS8U,001,2020-12-12_22h17.19.441,change-localization,2020.1.2,Win32,60,,,0,44,44,44,1,,
,,0.195833366,-0.196296317,1,0,0,1.783385,probe3,"[0.2,-0.2]",,,,,,46,probe5,0.05,0.05,0.2,0.1,#0072b2,#0072b2,,0.1,0.2,#f0e442,#f0e442,,0.2,-0.2,#009e73,#009e73,,0.2,0.2,#4A4A4A,#4A4A4A,,0.2,0,#cc79a7,#e69f00,,AYR486J4XCS8U,001,2020-12-12_22h17.19.441,change-localization,2020.1.2,Win32,60,,,0,45,45,45,1,,
,,0.199074106,0.199537028,1,0,0,1.36689,probe3,"[0.2,0.2]",,,,,,47,probe3,0.05,0.05,0,-0.1,#009e73,#009e73,,-0.2,0.2,#f0e442,#f0e442,,0.2,0.2,#56b4e9,#cc79a7,,-0.1,0.2,#4A4A4A,#4A4A4A,,-0.1,0.1,#e69f00,#e69f00,,AYR486J4XCS8U,001,2020-12-12_22h17.19.441,change-localization,2020.1.2,Win32,60,,,0,46,46,46,1,,
,,-0.194907387,-0.098611129,1,0,0,1.083375,probe4,"[-0.2,-0.1]",,,,,,48,probe4,0.05,0.05,0.2,-0.2,#cc79a7,#cc79a7,,-0.1,0.1,#009e73,#009e73,,0.1,-0.2,#f0e442,#f0e442,,-0.2,-0.1,#d55e00,#0072b2,,-0.1,0,#56b4e9,#56b4e9,,AYR486J4XCS8U,001,2020-12-12_22h17.19.441,change-localization,2020.1.2,Win32,60,,,0,47,47,47,1,,
,,-0.196759239,0.006018504,1,0,0,1.482525,probe2,"[-0.2,0]",,,,,,49,probe2,0.05,0.05,0,-0.2,#e69f00,#e69f00,,-0.2,0,#cc79a7,#0072b2,,-0.1,0.2,#f0e442,#f0e442,,0.1,0.2,#4A4A4A,#4A4A4A,,-0.1,-0.1,#56b4e9,#56b4e9,,AYR486J4XCS8U,001,2020-12-12_22h17.19.441,change-localization,2020.1.2,Win32,60,,,0,48,48,48,1,,
,,-0.002777751,0.097685145,1,0,0,1.38358,probe5,"[0,0.1]",,,,,,50,probe4,0.05,0.05,0.2,0.1,#0072b2,#0072b2,,0.1,0.1,#cc79a7,#cc79a7,,0.1,-0.2,#56b4e9,#56b4e9,,-0.1,0,#009e73,#e69f00,,0,0.1,#d55e00,#d55e00,,AYR486J4XCS8U,001,2020-12-12_22h17.19.441,change-localization,2020.1.2,Win32,60,,,0,49,49,49,1,,
,,,,,,,,,,,,,,,,,,,,,,,,,,,,,,,,,,,,,,,,,,,,AYR486J4XCS8U,001,2020-12-12_22h17.19.441,change-localization,2020.1.2,Win32,60,,,,,,,,c,28.93815
