key_resp.keys,key_resp.rt,mouse.x,mouse.y,mouse.leftButton,mouse.midButton,mouse.rightButton,mouse.time,mouse.clicked_name,mouse.clicked_pos,training.thisRepN,training.thisTrialN,training.thisN,training.thisIndex,training.ran,trial,answer,height,width,x1,y1,stim_color1,probe_color1,copy_color1,x2,y2,stim_color2,probe_color2,copy_color2,x3,y3,stim_color3,probe_color3,copy_color3,x4,y4,stim_color4,probe_color4,copy_color4,x5,y5,stim_color5,probe_color5,copy_color5,participant,session,date,expName,psychopyVersion,OS,frameRate,key_resp_2.keys,key_resp_2.rt,trials.thisRepN,trials.thisTrialN,trials.thisN,trials.thisIndex,trials.ran,completion_keys.keys,completion_keys.rt
c,16.63442,-0.090740741,-0.186111111,1,0,0,2.40032,probe3,"[-0.1,-0.2]",0,0,0,0,1,1,probe4,0.05,0.05,0.1,0.2,#0072b2,#0072b2,#0072b2,0.1,-0.1,#e69f00,#e69f00,#e69f00,-0.1,-0.2,#cc79a7,#cc79a7,#cc79a7,0.2,-0.1,#4A4A4A,#f0e442,#FFFFFF,0.2,0,#009e73,#009e73,#009e73,df,001,2021-02-04_21h47.21.701,change-localization,2020.1.2,Win32,60,,,,,,,,,
,,0.202777778,-0.014814815,1,0,0,2.483555,probe1,"[0.2,0]",0,1,1,1,1,2,probe1,0.05,0.05,0.2,0,#d55e00,#009e73,#FFFFFF,0.2,-0.1,#e69f00,#e69f00,#e69f00,0.1,0,#4A4A4A,#4A4A4A,#4A4A4A,-0.1,0.1,#56b4e9,#56b4e9,#56b4e9,-0.1,0,#cc79a7,#cc79a7,#cc79a7,df,001,2021-02-04_21h47.21.701,change-localization,2020.1.2,Win32,60,,,,,,,,,
,,-0.188888889,-0.20462963,1,0,0,1.816745,probe1,"[-0.2,-0.2]",0,2,2,2,1,3,probe1,0.05,0.05,-0.2,-0.2,#f0e442,#009e73,#FFFFFF,0.2,-0.1,#d55e00,#d55e00,#d55e00,-0.2,0,#4A4A4A,#4A4A4A,#4A4A4A,-0.1,-0.1,#0072b2,#0072b2,#0072b2,0,-0.1,#56b4e9,#56b4e9,#56b4e9,df,001,2021-02-04_21h47.21.701,change-localization,2020.1.2,Win32,60,,,,,,,,,
,,0.184259259,0.190740741,1,0,0,1.38349,probe1,"[0.2,0.2]",0,3,3,3,1,4,probe1,0.05,0.05,0.2,0.2,#d55e00,#56b4e9,#FFFFFF,-0.2,0.2,#f0e442,#f0e442,#f0e442,0.2,-0.2,#0072b2,#0072b2,#0072b2,-0.2,0,#cc79a7,#cc79a7,#cc79a7,-0.2,0.1,#4A4A4A,#4A4A4A,#4A4A4A,df,001,2021-02-04_21h47.21.701,change-localization,2020.1.2,Win32,60,,,,,,,,,
,,0.010185185,0.087962963,1,0,0,1.049935,probe3,"[0,0.1]",0,4,4,4,1,5,probe3,0.05,0.05,-0.2,0.1,#56b4e9,#56b4e9,#56b4e9,0,0.2,#009e73,#009e73,#009e73,0,0.1,#0072b2,#cc79a7,#FFFFFF,-0.1,-0.1,#4A4A4A,#4A4A4A,#4A4A4A,0.2,0,#f0e442,#f0e442,#f0e442,df,001,2021-02-04_21h47.21.701,change-localization,2020.1.2,Win32,60,,,,,,,,,
,,0.077777778,-0.008333333,1,0,0,1.199925,probe5,"[0.1,0]",0,5,5,5,1,6,probe5,0.05,0.05,-0.1,0.1,#f0e442,#f0e442,#f0e442,0,0.1,#009e73,#009e73,#009e73,-0.2,0,#4A4A4A,#4A4A4A,#4A4A4A,0,-0.2,#d55e00,#d55e00,#d55e00,0.1,0,#cc79a7,#0072b2,#FFFFFF,df,001,2021-02-04_21h47.21.701,change-localization,2020.1.2,Win32,60,,,,,,,,,
,,-0.087037037,-0.189814815,1,0,0,2.450215,probe3,"[-0.1,-0.2]",0,6,6,6,1,7,probe2,0.05,0.05,-0.2,-0.2,#4A4A4A,#4A4A4A,#4A4A4A,0.1,0.2,#0072b2,#d55e00,#FFFFFF,-0.1,-0.2,#f0e442,#f0e442,#f0e442,-0.2,0.2,#009e73,#009e73,#009e73,0.2,0.2,#e69f00,#e69f00,#e69f00,df,001,2021-02-04_21h47.21.701,change-localization,2020.1.2,Win32,60,,,,,,,,,
,,0.094444444,-0.215740741,1,0,0,1.41667,probe1,"[0.1,-0.2]",0,7,7,7,1,8,probe1,0.05,0.05,0.1,-0.2,#009e73,#f0e442,#FFFFFF,-0.1,0,#d55e00,#d55e00,#d55e00,-0.1,0.1,#4A4A4A,#4A4A4A,#4A4A4A,-0.2,0,#cc79a7,#cc79a7,#cc79a7,0.2,0,#e69f00,#e69f00,#e69f00,df,001,2021-02-04_21h47.21.701,change-localization,2020.1.2,Win32,60,,,,,,,,,
,,-0.187037037,0.105555556,1,0,0,1.58382,probe3,"[-0.2,0.1]",0,8,8,8,1,9,probe1,0.05,0.05,0.1,-0.2,#0072b2,#e69f00,#FFFFFF,-0.1,0.2,#f0e442,#f0e442,#f0e442,-0.2,0.1,#d55e00,#d55e00,#d55e00,0.2,0.2,#cc79a7,#cc79a7,#cc79a7,0.1,0.1,#56b4e9,#56b4e9,#56b4e9,df,001,2021-02-04_21h47.21.701,change-localization,2020.1.2,Win32,60,,,,,,,,,
,,-0.088888889,-0.12037037,1,0,0,0.968955,probe1,"[-0.1,-0.1]",0,9,9,9,1,10,probe1,0.05,0.05,-0.1,-0.1,#4A4A4A,#f0e442,#FFFFFF,0,0.2,#cc79a7,#cc79a7,#cc79a7,0.2,-0.2,#e69f00,#e69f00,#e69f00,0.1,-0.2,#009e73,#009e73,#009e73,0.1,0.1,#d55e00,#d55e00,#d55e00,df,001,2021-02-04_21h47.21.701,change-localization,2020.1.2,Win32,60,,,,,,,,,
,,-0.017592593,-0.231481481,1,0,0,3.85007,probe4,"[0,-0.2]",,,,,,1,probe2,0.05,0.05,-0.2,0.2,#009e73,#009e73,,-0.1,0.2,#f0e442,#e69f00,,-0.1,0,#0072b2,#0072b2,,0,-0.2,#cc79a7,#cc79a7,,0,0.2,#d55e00,#d55e00,,df,001,2021-02-04_21h47.21.701,change-localization,2020.1.2,Win32,60,c,4.35586,0,0,0,0,1,,
,,-0.088888889,-0.111111111,1,0,0,0.96638,probe3,"[-0.1,-0.1]",,,,,,2,probe5,0.05,0.05,0,0.1,#009e73,#009e73,,0.2,0.1,#4A4A4A,#4A4A4A,,-0.1,-0.1,#cc79a7,#cc79a7,,0.1,0.1,#d55e00,#d55e00,,0,-0.1,#56b4e9,#e69f00,,df,001,2021-02-04_21h47.21.701,change-localization,2020.1.2,Win32,60,,,0,1,1,1,1,,
,,-0.09537037,0.106481481,1,0,0,1.033305,probe4,"[-0.1,0.1]",,,,,,3,probe4,0.05,0.05,0.1,-0.1,#56b4e9,#56b4e9,,0.2,0,#f0e442,#f0e442,,0.2,-0.1,#e69f00,#e69f00,,-0.1,0.1,#4A4A4A,#009e73,,-0.1,0.2,#d55e00,#d55e00,,df,001,2021-02-04_21h47.21.701,change-localization,2020.1.2,Win32,60,,,0,2,2,2,1,,
,,-0.187962963,-0.010185185,1,0,0,1.100085,probe5,"[-0.2,0]",,,,,,4,probe5,0.05,0.05,0.2,0,#56b4e9,#56b4e9,,-0.2,-0.2,#cc79a7,#cc79a7,,0,0.2,#4A4A4A,#4A4A4A,,0.2,-0.2,#e69f00,#e69f00,,-0.2,0,#f0e442,#009e73,,df,001,2021-02-04_21h47.21.701,change-localization,2020.1.2,Win32,60,,,0,3,3,3,1,,
,,-0.089814815,-0.092592593,1,0,0,1.03353,probe3,"[-0.1,-0.1]",,,,,,5,probe3,0.05,0.05,-0.2,0.1,#4A4A4A,#4A4A4A,,0.2,0.2,#009e73,#009e73,,-0.1,-0.1,#0072b2,#f0e442,,0.2,0,#cc79a7,#cc79a7,,0.1,0.1,#e69f00,#e69f00,,df,001,2021-02-04_21h47.21.701,change-localization,2020.1.2,Win32,60,,,0,4,4,4,1,,
,,-0.1,0.092592593,1,0,0,1.36655,probe1,"[-0.1,0.1]",,,,,,6,probe4,0.05,0.05,-0.1,0.1,#d55e00,#d55e00,,-0.2,0.2,#0072b2,#0072b2,,0,-0.1,#e69f00,#e69f00,,0,0.2,#56b4e9,#4A4A4A,,-0.2,-0.2,#009e73,#009e73,,df,001,2021-02-04_21h47.21.701,change-localization,2020.1.2,Win32,60,,,0,5,5,5,1,,
,,-0.194444444,0.200925926,1,0,0,1.16677,probe3,"[-0.2,0.2]",,,,,,7,probe4,0.05,0.05,0.2,-0.1,#56b4e9,#56b4e9,,-0.1,-0.1,#e69f00,#e69f00,,-0.2,0.2,#009e73,#009e73,,0.2,0.2,#cc79a7,#4A4A4A,,0.2,-0.2,#d55e00,#d55e00,,df,001,2021-02-04_21h47.21.701,change-localization,2020.1.2,Win32,60,,,0,6,6,6,1,,
,,-0.193518519,0.107407407,1,0,0,1.15018,probe1,"[-0.2,0.1]",,,,,,8,probe4,0.05,0.05,-0.2,0.1,#e69f00,#e69f00,,0.1,0.2,#cc79a7,#cc79a7,,0.2,0.1,#4A4A4A,#4A4A4A,,-0.2,0.2,#56b4e9,#d55e00,,0.2,-0.1,#0072b2,#0072b2,,df,001,2021-02-04_21h47.21.701,change-localization,2020.1.2,Win32,60,,,0,7,7,7,1,,
,,-0.177777778,0.085185185,1,0,0,1.31684,probe3,"[-0.2,0.1]",,,,,,9,probe5,0.05,0.05,-0.1,0,#4A4A4A,#4A4A4A,,0.1,0.1,#56b4e9,#56b4e9,,-0.2,0.1,#009e73,#009e73,,0.2,0.1,#cc79a7,#cc79a7,,0.2,0.2,#d55e00,#f0e442,,df,001,2021-02-04_21h47.21.701,change-localization,2020.1.2,Win32,60,,,0,8,8,8,1,,
,,0.103703704,-0.118518519,1,0,0,1.36667,probe2,"[0.1,-0.1]",,,,,,10,probe3,0.05,0.05,0.2,0.2,#f0e442,#f0e442,,0.1,-0.1,#e69f00,#e69f00,,0,0.1,#cc79a7,#4A4A4A,,-0.2,0.1,#56b4e9,#56b4e9,,0.2,0,#0072b2,#0072b2,,df,001,2021-02-04_21h47.21.701,change-localization,2020.1.2,Win32,60,,,0,9,9,9,1,,
,,0.103703704,-0.118518519,1,0,0,0.89989,probe3,"[0.1,-0.1]",,,,,,11,probe5,0.05,0.05,0.2,0.2,#4A4A4A,#4A4A4A,,0.1,0.2,#0072b2,#0072b2,,0.1,-0.1,#cc79a7,#cc79a7,,0,-0.2,#009e73,#009e73,,0.1,-0.2,#f0e442,#d55e00,,df,001,2021-02-04_21h47.21.701,change-localization,2020.1.2,Win32,60,,,0,10,10,10,1,,
,,0.116666667,0.002777778,1,0,0,1.067055,probe4,"[0.1,0]",,,,,,12,probe4,0.05,0.05,-0.1,-0.1,#009e73,#009e73,,-0.1,0,#56b4e9,#56b4e9,,-0.1,-0.2,#0072b2,#0072b2,,0.1,0,#d55e00,#f0e442,,0,-0.1,#cc79a7,#cc79a7,,df,001,2021-02-04_21h47.21.701,change-localization,2020.1.2,Win32,60,,,0,11,11,11,1,,
,,-0.209259259,0.208333333,1,0,0,0.966535,probe4,"[-0.2,0.2]",,,,,,13,probe4,0.05,0.05,0,-0.1,#f0e442,#f0e442,,0.1,-0.1,#d55e00,#d55e00,,0.1,0.1,#0072b2,#0072b2,,-0.2,0.2,#cc79a7,#4A4A4A,,0.1,0.2,#009e73,#009e73,,df,001,2021-02-04_21h47.21.701,change-localization,2020.1.2,Win32,60,,,0,12,12,12,1,,
,,0.108333333,0.190740741,1,0,0,1.583595,probe5,"[0.1,0.2]",,,,,,14,probe5,0.05,0.05,0,0.2,#cc79a7,#cc79a7,,0,-0.1,#4A4A4A,#4A4A4A,,-0.2,0,#56b4e9,#56b4e9,,0.1,0.1,#0072b2,#0072b2,,0.1,0.2,#009e73,#e69f00,,df,001,2021-02-04_21h47.21.701,change-localization,2020.1.2,Win32,60,,,0,13,13,13,1,,
,,0.105555556,-0.097222222,1,0,0,1.14988,probe4,"[0.1,-0.1]",,,,,,15,probe3,0.05,0.05,0.2,0.2,#cc79a7,#cc79a7,,0,0.2,#56b4e9,#56b4e9,,0.2,0.1,#d55e00,#4A4A4A,,0.1,-0.1,#f0e442,#f0e442,,0.2,-0.1,#0072b2,#0072b2,,df,001,2021-02-04_21h47.21.701,change-localization,2020.1.2,Win32,60,,,0,14,14,14,1,,
,,0.097222222,0.07962963,1,0,0,1.466925,probe3,"[0.1,0.1]",,,,,,16,probe3,0.05,0.05,-0.2,-0.1,#f0e442,#f0e442,,-0.2,0.2,#d55e00,#d55e00,,0.1,0.1,#009e73,#4A4A4A,,-0.2,0.1,#56b4e9,#56b4e9,,0,-0.1,#cc79a7,#cc79a7,,df,001,2021-02-04_21h47.21.701,change-localization,2020.1.2,Win32,60,,,0,15,15,15,1,,
,,-0.00462963,0.098148148,1,0,0,1.36676,probe3,"[0,0.1]",,,,,,17,probe3,0.05,0.05,0.2,-0.1,#cc79a7,#cc79a7,,0,-0.2,#0072b2,#0072b2,,0,0.1,#4A4A4A,#e69f00,,-0.2,-0.1,#f0e442,#f0e442,,-0.1,-0.1,#009e73,#009e73,,df,001,2021-02-04_21h47.21.701,change-localization,2020.1.2,Win32,60,,,0,16,16,16,1,,
,,-0.097222222,0.190740741,1,0,0,1.31686,probe2,"[-0.1,0.2]",,,,,,18,probe3,0.05,0.05,-0.1,0.1,#d55e00,#d55e00,,-0.1,0.2,#e69f00,#e69f00,,0.2,0,#009e73,#0072b2,,0.1,-0.1,#cc79a7,#cc79a7,,-0.2,0.2,#4A4A4A,#4A4A4A,,df,001,2021-02-04_21h47.21.701,change-localization,2020.1.2,Win32,60,,,0,17,17,17,1,,
,,-0.114814815,0.094444444,1,0,0,1.31665,probe3,"[-0.1,0.1]",,,,,,19,probe3,0.05,0.05,-0.1,0.2,#0072b2,#0072b2,,0,-0.1,#4A4A4A,#4A4A4A,,-0.1,0.1,#e69f00,#009e73,,0.2,0.1,#d55e00,#d55e00,,-0.2,0.1,#cc79a7,#cc79a7,,df,001,2021-02-04_21h47.21.701,change-localization,2020.1.2,Win32,60,,,0,18,18,18,1,,
,,-0.09537037,0.218518519,1,0,0,1.316755,probe2,"[-0.1,0.2]",,,,,,20,probe4,0.05,0.05,0.2,0,#56b4e9,#56b4e9,,-0.1,0.2,#009e73,#009e73,,-0.2,-0.2,#e69f00,#e69f00,,0,-0.1,#f0e442,#cc79a7,,-0.1,0,#4A4A4A,#4A4A4A,,df,001,2021-02-04_21h47.21.701,change-localization,2020.1.2,Win32,60,,,0,19,19,19,1,,
,,0.212037037,-0.006481481,1,0,0,1.700155,probe3,"[0.2,0]",,,,,,21,probe3,0.05,0.05,-0.1,0.1,#0072b2,#0072b2,,-0.1,0.2,#009e73,#009e73,,0.2,0,#56b4e9,#4A4A4A,,-0.2,0.2,#f0e442,#f0e442,,0.2,0.1,#d55e00,#d55e00,,df,001,2021-02-04_21h47.21.701,change-localization,2020.1.2,Win32,60,,,0,20,20,20,1,,
,,-0.188888889,-0.111111111,1,0,0,1.5333,probe4,"[-0.2,-0.1]",,,,,,22,probe4,0.05,0.05,0.2,-0.1,#d55e00,#d55e00,,0.2,0,#56b4e9,#56b4e9,,0.1,-0.2,#cc79a7,#cc79a7,,-0.2,-0.1,#4A4A4A,#009e73,,0,-0.2,#e69f00,#e69f00,,df,001,2021-02-04_21h47.21.701,change-localization,2020.1.2,Win32,60,,,0,21,21,21,1,,
,,-0.208333333,-0.187037037,1,0,0,1.41671,probe4,"[-0.2,-0.2]",,,,,,23,probe4,0.05,0.05,0.1,0.1,#56b4e9,#56b4e9,,-0.2,-0.1,#0072b2,#0072b2,,0.2,0,#d55e00,#d55e00,,-0.2,-0.2,#cc79a7,#009e73,,0.1,-0.2,#4A4A4A,#4A4A4A,,df,001,2021-02-04_21h47.21.701,change-localization,2020.1.2,Win32,60,,,0,22,22,22,1,,
,,0.07962963,-0.076851852,1,0,0,1.5002,probe3,"[0.1,-0.1]",,,,,,24,probe2,0.05,0.05,-0.1,-0.2,#4A4A4A,#4A4A4A,,0.2,0.2,#d55e00,#e69f00,,0.1,-0.1,#f0e442,#f0e442,,0.1,0.1,#56b4e9,#56b4e9,,-0.2,0.1,#cc79a7,#cc79a7,,df,001,2021-02-04_21h47.21.701,change-localization,2020.1.2,Win32,60,,,0,23,23,23,1,,
,,-0.215740741,0.100925926,1,0,0,1.833365,probe5,"[-0.2,0.1]",,,,,,25,probe3,0.05,0.05,-0.2,-0.2,#f0e442,#f0e442,,-0.1,-0.1,#4A4A4A,#4A4A4A,,0.2,0,#d55e00,#cc79a7,,0,0.2,#0072b2,#0072b2,,-0.2,0.1,#009e73,#009e73,,df,001,2021-02-04_21h47.21.701,change-localization,2020.1.2,Win32,60,,,0,24,24,24,1,,
,,-0.113888889,-0.19537037,1,0,0,1.64987,probe3,"[-0.1,-0.2]",,,,,,26,probe3,0.05,0.05,0.1,-0.1,#e69f00,#e69f00,,-0.2,0,#56b4e9,#56b4e9,,-0.1,-0.2,#009e73,#d55e00,,-0.2,-0.1,#4A4A4A,#4A4A4A,,0.1,0,#cc79a7,#cc79a7,,df,001,2021-02-04_21h47.21.701,change-localization,2020.1.2,Win32,60,,,0,25,25,25,1,,
,,-0.191666667,-0.125,1,0,0,1.08362,probe5,"[-0.2,-0.1]",,,,,,27,probe5,0.05,0.05,-0.1,-0.2,#009e73,#009e73,,0.2,0,#cc79a7,#cc79a7,,-0.1,-0.1,#e69f00,#e69f00,,0.1,0.1,#d55e00,#d55e00,,-0.2,-0.1,#4A4A4A,#0072b2,,df,001,2021-02-04_21h47.21.701,change-localization,2020.1.2,Win32,60,,,0,26,26,26,1,,
,,-0.018518519,-0.206481481,1,0,0,1.55196,probe3,"[0,-0.2]",,,,,,28,probe5,0.05,0.05,-0.1,0.2,#009e73,#009e73,,-0.2,0.1,#56b4e9,#56b4e9,,0,-0.2,#d55e00,#d55e00,,0.1,0,#0072b2,#0072b2,,0.1,0.1,#f0e442,#e69f00,,df,001,2021-02-04_21h47.21.701,change-localization,2020.1.2,Win32,60,,,0,27,27,27,1,,
,,0.089814815,-0.12037037,1,0,0,1.0667,probe1,"[0.1,-0.1]",,,,,,29,probe1,0.05,0.05,0.1,-0.1,#4A4A4A,#56b4e9,,-0.2,0.2,#e69f00,#e69f00,,-0.1,-0.1,#f0e442,#f0e442,,0.1,0.2,#0072b2,#0072b2,,-0.1,-0.2,#cc79a7,#cc79a7,,df,001,2021-02-04_21h47.21.701,change-localization,2020.1.2,Win32,60,,,0,28,28,28,1,,
,,-0.094444444,-0.211111111,1,0,0,1.183145,probe2,"[-0.1,-0.2]",,,,,,30,probe2,0.05,0.05,0.1,0.2,#f0e442,#f0e442,,-0.1,-0.2,#d55e00,#4A4A4A,,0,-0.2,#cc79a7,#cc79a7,,0.1,-0.2,#0072b2,#0072b2,,-0.2,0,#009e73,#009e73,,df,001,2021-02-04_21h47.21.701,change-localization,2020.1.2,Win32,60,,,0,29,29,29,1,,
,,-0.112962963,-0.105555556,1,0,0,1.016705,probe5,"[-0.1,-0.1]",,,,,,31,probe5,0.05,0.05,0,-0.2,#d55e00,#d55e00,,0.1,0,#e69f00,#e69f00,,0.1,0.2,#f0e442,#f0e442,,-0.2,-0.1,#cc79a7,#cc79a7,,-0.1,-0.1,#009e73,#4A4A4A,,df,001,2021-02-04_21h47.21.701,change-localization,2020.1.2,Win32,60,,,0,30,30,30,1,,
,,0.192592593,0.101851852,1,0,0,1.60225,probe3,"[0.2,0.1]",,,,,,32,probe3,0.05,0.05,0.2,0.2,#56b4e9,#56b4e9,,-0.1,-0.1,#009e73,#009e73,,0.2,0.1,#cc79a7,#0072b2,,-0.2,0.1,#4A4A4A,#4A4A4A,,-0.2,-0.1,#f0e442,#f0e442,,df,001,2021-02-04_21h47.21.701,change-localization,2020.1.2,Win32,60,,,0,31,31,31,1,,
,,-0.103703704,0.094444444,1,0,0,1.56679,probe3,"[-0.1,0.1]",,,,,,33,probe3,0.05,0.05,-0.1,-0.1,#0072b2,#0072b2,,0.1,0.1,#cc79a7,#cc79a7,,-0.1,0.1,#f0e442,#009e73,,0,-0.2,#56b4e9,#56b4e9,,0.1,0.2,#e69f00,#e69f00,,df,001,2021-02-04_21h47.21.701,change-localization,2020.1.2,Win32,60,,,0,32,32,32,1,,
,,-0.226851852,0.106481481,1,0,0,1.20008,probe2,"[-0.2,0.1]",,,,,,34,probe5,0.05,0.05,0.2,0.1,#e69f00,#e69f00,,-0.2,0.1,#cc79a7,#cc79a7,,0.1,-0.2,#0072b2,#0072b2,,0.2,-0.2,#d55e00,#d55e00,,-0.2,0,#56b4e9,#009e73,,df,001,2021-02-04_21h47.21.701,change-localization,2020.1.2,Win32,60,,,0,33,33,33,1,,
,,0.182407407,-0.098148148,1,0,0,1.33344,probe2,"[0.2,-0.1]",,,,,,35,probe2,0.05,0.05,0.2,0,#56b4e9,#56b4e9,,0.2,-0.1,#e69f00,#009e73,,0.1,-0.1,#f0e442,#f0e442,,0,0.2,#d55e00,#d55e00,,0.1,0.2,#cc79a7,#cc79a7,,df,001,2021-02-04_21h47.21.701,change-localization,2020.1.2,Win32,60,,,0,34,34,34,1,,
,,-0.209259259,-0.108333333,1,0,0,1.28564,probe3,"[-0.2,-0.1]",,,,,,36,probe3,0.05,0.05,0,0.1,#4A4A4A,#4A4A4A,,0.2,0.1,#009e73,#009e73,,-0.2,-0.1,#f0e442,#56b4e9,,-0.1,-0.1,#e69f00,#e69f00,,0.1,0,#0072b2,#0072b2,,df,001,2021-02-04_21h47.21.701,change-localization,2020.1.2,Win32,60,,,0,35,35,35,1,,
,,0.085185185,-0.001851852,1,0,0,1.11691,probe5,"[0.1,0]",,,,,,37,probe5,0.05,0.05,-0.2,0.1,#e69f00,#e69f00,,0.1,0.1,#0072b2,#0072b2,,-0.2,0,#d55e00,#d55e00,,-0.1,0.2,#cc79a7,#cc79a7,,0.1,0,#009e73,#f0e442,,df,001,2021-02-04_21h47.21.701,change-localization,2020.1.2,Win32,60,,,0,36,36,36,1,,
,,0.196296296,-0.184259259,1,0,0,0.950465,probe1,"[0.2,-0.2]",,,,,,38,probe4,0.05,0.05,0.2,-0.2,#4A4A4A,#4A4A4A,,0.2,0,#0072b2,#0072b2,,0.1,-0.1,#e69f00,#e69f00,,0.1,0,#d55e00,#cc79a7,,0,-0.1,#009e73,#009e73,,df,001,2021-02-04_21h47.21.701,change-localization,2020.1.2,Win32,60,,,0,37,37,37,1,,
,,-0.19537037,0.192592593,1,0,0,0.936765,probe4,"[-0.2,0.2]",,,,,,39,probe4,0.05,0.05,0.1,-0.1,#e69f00,#e69f00,,-0.2,-0.1,#cc79a7,#cc79a7,,0.2,0.1,#d55e00,#d55e00,,-0.2,0.2,#56b4e9,#f0e442,,0,-0.1,#0072b2,#0072b2,,df,001,2021-02-04_21h47.21.701,change-localization,2020.1.2,Win32,60,,,0,38,38,38,1,,
,,0.197222222,0.197222222,1,0,0,1.400195,probe2,"[0.2,0.2]",,,,,,40,probe1,0.05,0.05,-0.2,0.1,#4A4A4A,#d55e00,,0.2,0.2,#009e73,#009e73,,-0.1,-0.1,#cc79a7,#cc79a7,,0.2,-0.2,#e69f00,#e69f00,,0.1,-0.1,#56b4e9,#56b4e9,,df,001,2021-02-04_21h47.21.701,change-localization,2020.1.2,Win32,60,,,0,39,39,39,1,,
,,-0.111111111,0.011111111,1,0,0,1.016935,probe4,"[-0.1,0]",,,,,,41,probe4,0.05,0.05,0.2,0.1,#009e73,#009e73,,-0.2,-0.1,#0072b2,#0072b2,,-0.2,-0.2,#56b4e9,#56b4e9,,-0.1,0,#f0e442,#cc79a7,,0,-0.2,#d55e00,#d55e00,,df,001,2021-02-04_21h47.21.701,change-localization,2020.1.2,Win32,60,,,0,40,40,40,1,,
,,-0.125,0.115740741,1,0,0,1.400115,probe2,"[-0.1,0.1]",,,,,,42,probe4,0.05,0.05,-0.1,-0.2,#009e73,#009e73,,-0.1,0.1,#cc79a7,#cc79a7,,0.1,0.1,#56b4e9,#56b4e9,,0,-0.2,#e69f00,#d55e00,,-0.1,0,#0072b2,#0072b2,,df,001,2021-02-04_21h47.21.701,change-localization,2020.1.2,Win32,60,,,0,41,41,41,1,,
,,0.215740741,-0.123148148,1,0,0,0.73313,probe1,"[0.2,-0.1]",,,,,,43,probe1,0.05,0.05,0.2,-0.1,#e69f00,#009e73,,0.1,0,#cc79a7,#cc79a7,,-0.2,-0.2,#f0e442,#f0e442,,0.2,-0.2,#56b4e9,#56b4e9,,-0.2,0.1,#4A4A4A,#4A4A4A,,df,001,2021-02-04_21h47.21.701,change-localization,2020.1.2,Win32,60,,,0,42,42,42,1,,
,,0.096296296,0.19537037,1,0,0,1.14993,probe4,"[0.1,0.2]",,,,,,44,probe1,0.05,0.05,-0.1,0.2,#56b4e9,#e69f00,,0.2,0.1,#4A4A4A,#4A4A4A,,0.1,0,#cc79a7,#cc79a7,,0.1,0.2,#f0e442,#f0e442,,-0.1,-0.1,#d55e00,#d55e00,,df,001,2021-02-04_21h47.21.701,change-localization,2020.1.2,Win32,60,,,0,43,43,43,1,,
,,-0.086111111,0.101851852,1,0,0,1.233425,probe3,"[-0.1,0.1]",,,,,,45,probe3,0.05,0.05,-0.2,0.2,#0072b2,#0072b2,,-0.2,-0.1,#56b4e9,#56b4e9,,-0.1,0.1,#f0e442,#e69f00,,-0.1,0.2,#d55e00,#d55e00,,0,-0.2,#cc79a7,#cc79a7,,df,001,2021-02-04_21h47.21.701,change-localization,2020.1.2,Win32,60,,,0,44,44,44,1,,
,,0.116666667,0.202777778,1,0,0,2.100135,probe2,"[0.1,0.2]",,,,,,46,probe5,0.05,0.05,0.2,0.1,#0072b2,#0072b2,,0.1,0.2,#f0e442,#f0e442,,0.2,-0.2,#009e73,#009e73,,0.2,0.2,#4A4A4A,#4A4A4A,,0.2,0,#cc79a7,#e69f00,,df,001,2021-02-04_21h47.21.701,change-localization,2020.1.2,Win32,60,,,0,45,45,45,1,,
,,0.197222222,0.20462963,1,0,0,1.183245,probe3,"[0.2,0.2]",,,,,,47,probe3,0.05,0.05,0,-0.1,#009e73,#009e73,,-0.2,0.2,#f0e442,#f0e442,,0.2,0.2,#56b4e9,#cc79a7,,-0.1,0.2,#4A4A4A,#4A4A4A,,-0.1,0.1,#e69f00,#e69f00,,df,001,2021-02-04_21h47.21.701,change-localization,2020.1.2,Win32,60,,,0,46,46,46,1,,
,,-0.173148148,-0.093518519,1,0,0,1.48375,probe4,"[-0.2,-0.1]",,,,,,48,probe4,0.05,0.05,0.2,-0.2,#cc79a7,#cc79a7,,-0.1,0.1,#009e73,#009e73,,0.1,-0.2,#f0e442,#f0e442,,-0.2,-0.1,#d55e00,#0072b2,,-0.1,0,#56b4e9,#56b4e9,,df,001,2021-02-04_21h47.21.701,change-localization,2020.1.2,Win32,60,,,0,47,47,47,1,,
,,-0.2,-0.043518519,1,0,0,0.95031,probe2,"[-0.2,0]",,,,,,49,probe2,0.05,0.05,0,-0.2,#e69f00,#e69f00,,-0.2,0,#cc79a7,#0072b2,,-0.1,0.2,#f0e442,#f0e442,,0.1,0.2,#4A4A4A,#4A4A4A,,-0.1,-0.1,#56b4e9,#56b4e9,,df,001,2021-02-04_21h47.21.701,change-localization,2020.1.2,Win32,60,,,0,48,48,48,1,,
,,-0.121296296,-0.008333333,1,0,0,1.01675,probe4,"[-0.1,0]",,,,,,50,probe4,0.05,0.05,0.2,0.1,#0072b2,#0072b2,,0.1,0.1,#cc79a7,#cc79a7,,0.1,-0.2,#56b4e9,#56b4e9,,-0.1,0,#009e73,#e69f00,,0,0.1,#d55e00,#d55e00,,df,001,2021-02-04_21h47.21.701,change-localization,2020.1.2,Win32,60,,,0,49,49,49,1,,
,,,,,,,,,,,,,,,,,,,,,,,,,,,,,,,,,,,,,,,,,,,,df,001,2021-02-04_21h47.21.701,change-localization,2020.1.2,Win32,60,,,,,,,,c,4.60768
